# ax ay az gx gy gz
-0.98	0.11	0.03	-0.42	0.02	0.17
-0.98	0.11	0.03	-0.33	-0.09	0.06
-0.98	0.11	0.03	-0.37	-0.02	0.05
-0.98	0.11	0.03	-0.45	-0.03	0.03
-0.98	0.11	0.03	-0.39	-0.03	0.10
-0.98	0.11	0.03	-0.45	0.03	0.16
-0.98	0.11	0.03	-0.42	-0.11	0.14
-0.98	0.11	0.03	-0.32	-0.01	0.08
-0.98	0.11	0.03	-0.38	-0.01	0.04
-0.98	0.11	0.03	-0.42	0.02	0.10
-0.98	0.11	0.03	-0.47	-0.01	0.11
-0.98	0.11	0.03	-0.40	0.02	0.11
-0.98	0.11	0.03	-0.40	0.02	0.16
-0.98	0.11	0.03	-0.41	0.04	0.06
-0.98	0.11	0.03	-0.39	0.03	0.14
-0.98	0.11	0.03	-0.44	0.06	0.06
-0.98	0.11	0.03	-0.48	0.04	0.11
-0.98	0.11	0.03	-0.38	0.09	0.03
-0.98	0.11	0.03	-0.38	0.09	0.10
-0.98	0.11	0.03	-0.47	0.03	0.10
-0.98	0.11	0.03	-0.35	-0.04	0.16
-0.98	0.11	0.03	-0.44	0.04	0.09
-0.98	0.11	0.03	-0.43	0.06	0.08
-0.98	0.11	0.03	-0.43	-0.00	0.21
-0.98	0.11	0.03	-0.40	-0.01	0.14
-0.98	0.11	0.03	-0.42	0.01	0.06
-0.98	0.11	0.03	-0.42	0.06	0.10
-0.98	0.11	0.03	-0.42	0.03	0.08
-0.98	0.11	0.03	-0.36	0.03	0.17
-0.98	0.11	0.03	-0.42	-0.00	0.08
-0.98	0.11	0.03	-0.45	0.05	0.18
-0.98	0.11	0.03	-0.47	0.01	0.07
-0.98	0.11	0.03	-0.42	0.02	0.14
-0.98	0.11	0.03	-0.35	0.00	0.14
-0.98	0.11	0.03	-0.45	-0.00	0.15
-0.98	0.11	0.03	-0.39	-0.00	0.16
-0.98	0.11	0.03	-0.41	0.03	0.12
-0.98	0.11	0.03	-0.39	-0.00	0.14
-0.98	0.11	0.03	-0.36	-0.05	0.13
-0.98	0.11	0.03	-0.45	0.03	0.08
-0.98	0.11	0.03	-0.46	0.02	0.12
-0.98	0.11	0.03	-0.36	0.00	0.11
-0.98	0.11	0.03	-0.34	-0.08	0.10
-0.98	0.11	0.03	-0.43	0.00	0.14
-0.98	0.11	0.03	-0.42	0.03	0.13
-0.98	0.11	0.03	-0.37	-0.00	0.15
-0.98	0.11	0.03	-0.39	-0.01	0.07
-0.98	0.11	0.03	-0.41	0.01	0.15
-0.98	0.11	0.03	-0.39	-0.02	0.11
-0.98	0.11	0.03	-0.39	-0.00	0.13
-0.98	0.11	0.03	-0.42	-0.00	0.10
-0.98	0.11	0.03	-0.41	0.08	0.11
-0.98	0.11	0.03	-0.39	-0.00	0.11
-0.98	0.11	0.03	-0.46	0.00	0.08
-0.98	0.11	0.03	-0.41	0.04	0.10
-0.98	0.11	0.03	-0.38	0.04	0.13
-0.98	0.11	0.03	-0.41	0.02	0.03
-0.98	0.11	0.03	-0.35	-0.05	0.15
-0.98	0.11	0.03	-0.39	0.00	0.10
-0.98	0.11	0.03	-0.36	0.03	0.10
-0.98	0.11	0.03	-0.40	-0.12	0.11
-0.98	0.11	0.03	-0.35	-0.03	0.04
-0.98	0.11	0.03	-0.42	-0.10	0.04
-0.98	0.11	0.03	-0.50	0.02	0.17
-0.98	0.11	0.03	-0.37	-0.12	0.15
-0.98	0.11	0.03	-0.41	-0.03	0.04
-0.98	0.11	0.03	-0.44	0.01	0.10
-0.98	0.11	0.03	-0.35	0.00	0.06
-0.98	0.11	0.03	-0.39	-0.01	0.15
-0.98	0.11	0.03	-0.34	-0.02	0.10
-0.98	0.11	0.03	-0.45	-0.02	0.17
-0.98	0.11	0.03	-0.45	0.03	0.10
-0.98	0.11	0.03	-0.42	-0.01	0.11
-0.98	0.11	0.03	-0.45	0.01	0.06
-0.98	0.11	0.03	-0.45	0.04	0.13
-0.98	0.11	0.03	-0.48	-0.01	0.04
-0.98	0.11	0.03	-0.39	0.09	0.05
-0.98	0.11	0.03	-0.41	-0.01	0.14
-0.98	0.11	0.03	-0.42	0.03	0.11
-0.98	0.11	0.03	-0.36	0.05	0.09
-0.98	0.11	0.03	-0.40	0.06	0.11
-0.98	0.11	0.03	-0.39	-0.00	0.11
-0.98	0.11	0.03	-0.36	-0.00	0.06
-0.98	0.11	0.03	-0.45	0.00	0.08
-0.98	0.11	0.03	-0.34	-0.05	0.11
-0.98	0.11	0.03	-0.42	-0.09	0.09
-0.98	0.11	0.04	-0.48	0.01	0.01
-0.99	0.11	0.03	-0.40	0.24	0.13
-0.98	0.11	0.03	-0.40	-0.34	0.12
-0.98	0.11	0.03	-0.49	0.26	0.10
-0.99	0.11	0.03	-0.40	-0.08	0.13
-0.98	0.11	0.03	-0.42	-0.06	0.11
-0.98	0.11	0.03	-0.34	0.18	0.10
-0.98	0.11	0.03	-0.42	-0.14	0.15
-0.98	0.11	0.03	-0.42	0.06	0.09
-0.98	0.11	0.03	-0.36	0.01	0.11
-0.98	0.11	0.03	-0.39	0.04	0.06
-0.98	0.11	0.03	-0.32	-0.02	0.08
-0.98	0.11	0.03	-0.42	0.07	0.03
-0.98	0.11	0.03	-0.39	-0.02	0.10
-0.98	0.11	0.03	-0.47	-0.00	0.11
-0.98	0.11	0.03	-0.30	0.07	0.01
-0.98	0.11	0.03	-0.44	-0.10	0.08
-0.98	0.11	0.03	-0.45	0.05	0.13
-0.98	0.11	0.03	-0.36	-0.13	0.11
-0.98	0.11	0.03	-0.35	0.06	0.13
-0.98	0.11	0.03	-0.47	0.01	0.11
-0.98	0.11	0.03	-0.35	-0.03	0.09
-0.98	0.11	0.03	-0.48	0.07	0.04
-0.98	0.11	0.03	-0.44	0.06	0.10
-0.98	0.11	0.03	-0.39	0.00	0.05
-0.98	0.11	0.03	-0.42	0.03	0.05
-0.98	0.11	0.03	-0.41	0.00	0.06
-0.98	0.11	0.03	-0.36	0.03	0.13
-0.98	0.11	0.03	-0.39	-0.04	0.06
-0.98	0.11	0.04	-0.38	0.03	0.16
-0.98	0.11	0.03	-0.43	-0.01	0.15
-0.98	0.11	0.03	-0.58	0.05	0.14
-0.98	0.11	0.03	-0.39	-0.01	0.07
-0.98	0.11	0.03	-0.40	0.00	0.16
-0.98	0.11	0.03	-0.43	0.06	0.09
-0.98	0.11	0.03	-0.45	0.01	0.16
-0.98	0.11	0.03	-0.41	0.03	0.06
-0.99	0.11	0.03	-0.36	-0.58	0.02
-0.96	0.11	0.04	-0.47	1.90	0.04
-1.00	0.11	0.02	-0.52	1.38	-0.01
-0.00	0.11	0.03	-0.45	-2.30	0.16
-0.98	0.11	0.03	-0.49	-3.90	0.39
-0.98	0.11	0.04	-0.43	-2.77	0.44
-0.97	0.11	0.04	-0.46	-1.36	0.24
-0.97	0.11	0.05	-0.39	3.16	-0.15
-1.03	0.11	0.01	-0.32	4.23	-0.26
-1.01	0.11	0.02	-0.36	-7.05	0.45
-0.98	0.11	0.04	-0.52	-10.96	1.31
-0.95	0.11	0.06	-0.74	-8.85	1.23
-0.93	0.11	0.07	-0.64	-1.42	0.38
-0.95	0.12	0.06	-1.01	9.00	-1.00
-1.00	0.11	0.03	-0.11	12.26	-1.45
-1.08	0.11	-0.01	-0.86	-2.68	0.45
-1.09	0.11	-0.01	-0.81	-26.50	3.14
-0.94	0.14	0.09	-12.75	-38.68	4.22
-1.37	0.20	0.18	-2.16	12.25	0.90
-0.81	0.06	0.11	8.34	4.61	0.42
-0.98	0.04	0.07	10.66	-3.20	-1.03
-0.98	0.08	0.10	23.28	-2.47	-2.06
-0.00	0.10	0.11	28.46	-4.63	-2.96
-1.16	0.27	0.06	19.19	-21.56	-9.84
-1.12	0.07	0.09	-13.00	-55.28	-20.78
-1.03	0.08	0.14	-20.37	-73.77	-29.24
-1.13	-0.10	0.26	-18.70	-91.12	-49.72
-1.03	-0.06	0.30	-11.46	-118.65	-64.33
-0.86	-0.04	0.29	18.02	-99.18	-53.57
-0.90	0.01	0.37	11.59	-87.36	-42.64
-0.88	0.01	0.40	11.19	-91.66	-38.36
-0.84	0.03	0.47	5.21	-98.29	-30.28
-0.84	-0.05	0.54	4.38	-102.64	-19.11
-0.85	-0.06	0.57	7.10	-118.60	-25.46
-0.71	-0.08	0.62	-1.64	-142.55	-34.69
-0.59	-0.07	0.66	0.00	-143.09	-39.74
-0.60	-0.12	0.73	2.74	-139.80	-43.51
-0.57	-0.10	0.74	-6.91	-152.76	-52.16
-0.45	0.05	0.85	10.01	-146.06	-42.86
-0.24	-0.10	0.86	-2.33	-131.90	-21.85
-0.24	-0.21	0.87	5.72	-104.39	-25.22
-0.36	-0.18	0.89	-2.67	-75.12	-3.13
-0.12	-0.15	0.97	1.32	-41.46	-3.92
-0.25	-0.22	0.99	22.66	-33.54	-9.32
-0.30	-0.19	1.01	25.88	-52.15	-6.68
-0.16	-0.13	1.06	28.85	-87.64	-3.08
-0.10	-0.15	1.01	28.42	-112.17	-8.90
0.00	-0.14	0.95	28.35	-114.76	-20.12
0.21	-0.11	0.98	30.58	-78.00	-24.43
0.18	-0.08	0.99	45.22	-43.10	-26.35
0.16	0.01	1.01	39.82	-24.31	-14.16
0.12	-0.01	1.04	31.17	-20.91	0.34
0.10	0.02	1.06	25.70	-38.57	7.75
0.23	-0.01	1.04	18.16	-59.61	11.95
0.33	-0.01	0.00	17.44	-53.30	8.94
0.32	-0.01	0.97	14.12	-39.74	2.47
0.42	0.09	0.98	13.50	-26.75	5.49
0.36	0.10	0.94	2.37	-18.43	19.13
0.35	0.03	0.91	-12.56	-14.34	19.40
0.39	-0.01	0.91	-13.84	-0.79	18.78
0.33	0.00	0.92	-6.92	5.02	23.86
0.38	-0.00	0.89	-2.57	3.39	30.30
0.40	0.02	0.89	-8.29	20.36	30.48
0.27	-0.05	0.91	-10.09	31.57	15.54
0.30	-0.04	0.93	-6.08	34.60	8.16
0.24	-0.04	0.93	1.64	42.23	2.81
0.18	-0.02	0.94	2.10	40.17	0.66
0.22	-0.01	0.98	-4.86	35.32	-1.51
0.17	-0.03	1.00	-2.49	43.42	-1.81
0.05	-0.04	1.02	10.35	33.75	-2.81
0.07	-0.01	1.00	6.19	17.66	-10.22
0.09	0.02	1.02	3.56	11.73	-10.12
0.04	0.01	1.05	5.86	1.94	1.28
0.05	-0.00	1.00	0.29	-13.07	9.83
0.09	-0.04	0.99	-4.41	-15.63	10.06
0.10	-0.06	0.95	25.39	-17.73	-22.58
0.19	-0.05	0.92	38.92	0.54	-22.63
0.13	0.10	0.90	51.34	26.77	-27.02
0.03	0.07	0.97	30.02	40.72	-8.56
-0.07	0.11	0.99	28.88	38.03	-7.72
-0.14	0.18	0.98	16.57	18.96	-4.72
-0.09	0.16	1.01	-9.68	1.86	16.13
-0.02	0.10	0.00	-12.33	-5.55	25.53
0.11	0.09	0.94	5.40	12.06	20.70
-0.20	0.13	0.86	12.36	21.05	15.23
-0.17	0.11	1.01	10.73	20.56	31.09
0.02	0.13	0.00	16.09	21.91	42.58
0.08	0.16	0.98	6.04	25.28	59.32
0.01	0.04	1.01	-13.07	22.68	59.41
-0.10	-0.04	1.17	-19.96	3.93	39.91
0.02	0.07	1.07	-17.07	-27.54	17.18
0.13	-0.03	0.99	-11.56	-11.15	21.11
0.02	0.03	1.09	6.07	7.09	29.91
-0.04	0.08	1.05	6.80	1.17	31.86
0.10	-0.05	0.94	5.72	3.58	22.46
-0.05	0.09	0.97	12.74	2.24	19.28
-0.08	0.14	1.07	-2.09	-5.85	34.31
0.06	-0.01	0.92	-6.06	-18.73	49.92
0.04	-0.00	0.99	1.42	-14.47	66.06
-0.05	0.05	0.97	3.91	-23.58	66.83
0.03	0.02	0.99	-3.73	-33.47	69.02
0.11	0.15	0.93	-8.22	-37.47	52.28
0.36	0.07	0.91	-23.80	-8.79	21.18
0.01	0.10	0.99	-11.26	13.72	11.43
0.06	-0.06	0.00	-2.27	14.46	17.83
0.07	-0.01	0.99	17.98	19.45	21.19
0.06	0.07	1.00	6.97	10.20	35.64
0.13	0.04	1.04	-8.55	7.85	58.90
0.07	0.09	1.04	-30.13	7.46	82.82
0.10	0.09	1.04	-53.68	-3.07	70.98
0.14	-0.10	1.02	-50.64	-9.53	60.90
0.18	-0.11	1.04	-17.70	2.19	36.25
0.08	-0.13	1.08	14.25	3.80	36.55
0.25	-0.14	1.01	33.39	10.31	52.39
0.05	0.07	1.00	10.00	27.10	14.81
-0.18	0.01	1.06	8.83	15.78	47.31
0.31	-0.07	0.93	12.82	26.39	79.72
0.10	0.04	1.05	5.01	46.37	17.50
-0.26	0.04	1.03	-5.02	30.15	37.11
-0.11	-0.04	1.05	3.36	21.12	78.83
0.02	-0.12	1.01	22.35	12.47	68.29
-0.05	0.02	0.96	24.77	6.02	40.52
-0.14	0.13	0.95	9.74	-3.56	54.65
-0.07	0.04	0.95	1.11	-9.68	70.83
0.11	0.02	0.95	3.32	8.40	74.64
-0.01	0.22	0.87	-10.95	38.39	52.45
-0.13	0.08	0.95	-25.10	23.24	43.10
-0.03	-0.01	0.93	-11.68	-0.73	49.86
0.12	0.05	0.93	-20.13	1.32	35.76
-0.02	0.00	0.98	-32.82	3.16	20.43
-0.08	-0.08	1.01	-19.76	-0.30	28.52
0.11	-0.02	0.97	-7.26	3.39	37.55
0.16	-0.00	0.96	-14.77	17.99	17.54
0.02	-0.08	1.03	-21.59	10.92	-6.63
-0.02	-0.12	1.05	-1.74	-7.96	-3.69
0.01	-0.03	0.96	9.99	-10.01	6.63
0.03	0.00	0.96	5.02	18.02	-0.83
-0.17	0.01	0.97	-6.97	29.37	-7.65
-0.21	-0.03	0.97	-10.65	10.32	-2.66
-0.18	-0.13	1.07	-8.37	-7.05	5.95
0.02	-0.07	1.18	24.73	7.00	0.10
-0.10	0.05	0.96	3.94	14.00	-5.80
-0.17	-0.01	0.98	-11.36	7.85	3.30
-0.12	-0.06	0.98	-8.21	-2.06	3.30
-0.07	-0.07	0.98	-6.69	-5.80	2.64
-0.06	-0.07	1.05	-2.38	3.64	3.66
-0.05	-0.05	0.95	-3.86	14.34	1.53
-0.07	-0.03	0.95	-16.90	20.41	-2.31
-0.13	-0.07	1.06	1.58	11.72	-3.51
-0.16	-0.06	0.99	19.53	-8.15	-5.82
-0.09	-0.03	1.01	21.97	-14.83	3.40
-0.09	0.01	0.99	2.55	-1.82	2.90
-0.13	-0.08	0.98	-15.99	-1.69	-1.26
-0.15	-0.12	1.01	-2.21	-19.73	0.86
-0.06	-0.09	0.97	11.96	-33.47	1.45
-0.05	-0.07	0.97	9.31	-28.76	4.28
-0.00	-0.07	0.98	6.82	-14.78	4.80
-0.02	-0.07	1.01	3.77	-6.14	3.69
-0.05	-0.05	1.01	-0.61	-9.86	4.63
-0.00	-0.07	1.02	-4.12	-4.38	4.02
-0.03	-0.07	1.09	-1.86	-4.67	4.12
0.00	-0.04	1.01	4.41	-1.38	2.73
-0.02	-0.04	0.96	4.01	0.97	3.35
-0.03	-0.02	0.96	-2.10	-0.09	1.89
-0.03	-0.04	0.95	-14.44	3.86	2.00
-0.08	-0.04	0.97	-12.87	-0.73	2.48
0.01	0.24	1.00	42.55	-7.30	5.20
-0.04	0.12	1.07	15.07	-2.54	-1.96
-0.02	-0.02	1.00	2.66	0.93	-0.80
-0.08	-0.03	0.00	-0.67	0.54	-0.12
-0.10	-0.02	1.00	2.18	-12.18	-0.70
0.00	-0.03	1.00	5.18	-25.17	1.42
0.06	-0.03	1.01	4.41	-22.57	-0.08
0.03	-0.04	1.01	-0.51	-0.32	-2.81
-0.01	-0.03	1.01	-0.48	-1.80	-5.97
0.00	-0.04	1.00	-0.26	-3.31	-2.22
0.01	-0.02	1.00	0.10	-7.11	-4.34
-0.01	-0.03	1.00	0.40	-6.28	-4.01
0.01	-0.01	1.00	0.66	-10.27	-7.32
0.04	-0.03	1.01	-0.25	-3.38	-12.81
0.02	-0.02	1.01	-0.19	-0.19	-22.21
0.04	-0.03	1.01	-0.90	2.68	-23.98
0.02	-0.03	1.00	-0.00	2.44	-21.64
0.00	-0.03	1.00	-0.58	-0.05	-18.60
0.01	-0.00	1.00	0.02	-3.86	-12.91
0.03	-0.02	1.00	0.42	-6.71	-3.80
0.06	-0.02	1.00	-0.03	-4.50	-3.19
0.06	-0.01	1.00	-0.15	-1.64	-2.56
0.05	-0.02	1.00	-0.61	1.56	-2.09
0.01	-0.02	1.00	-0.67	1.35	-2.47
0.03	-0.02	1.00	-0.32	-0.54	-2.91
0.05	-0.02	1.00	-0.63	2.32	-6.69
0.05	-0.02	1.00	-0.93	4.15	-2.08
0.04	-0.02	1.00	-1.29	7.08	-0.62
0.00	-0.02	1.00	-1.30	7.05	-0.45
-0.02	-0.02	1.00	-0.74	3.11	-0.06
0.01	-0.02	1.00	-0.44	-0.02	-0.01
0.00	-0.02	1.00	-0.24	-1.16	-0.16
-0.00	-0.02	1.00	0.04	-3.79	-1.40
0.03	-0.02	1.00	0.30	-5.28	-2.67
0.02	-0.02	1.00	0.06	-4.65	-3.15
0.01	-0.01	1.00	0.45	-7.08	-0.24
0.05	-0.01	1.00	0.55	-7.66	0.33
0.04	-0.02	1.00	0.13	-5.18	-0.92
0.02	-0.02	1.01	0.43	-7.13	-0.73
0.07	-0.01	1.00	0.44	-7.89	0.77
0.08	-0.01	1.00	-0.07	-3.31	0.45
0.05	-0.02	1.00	-0.36	0.08	0.18
0.04	-0.02	1.00	-0.37	0.30	0.06
0.04	-0.02	1.00	-0.22	-1.48	0.08
0.07	-0.01	1.00	-0.36	-0.89	0.29
0.05	-0.02	1.01	-0.74	2.17	0.11
0.03	-0.01	1.01	-0.57	1.52	-0.01
0.05	-0.02	1.01	-0.40	0.03	0.07
0.06	-0.01	1.00	-0.54	1.71	0.16
0.02	-0.01	1.00	-0.78	2.66	-0.17
0.01	-0.02	1.01	-0.32	-1.97	0.16
0.04	-0.01	1.00	-0.03	-5.15	0.45
0.07	-0.02	1.00	0.04	-5.18	0.32
0.08	-0.02	1.00	-0.38	-1.35	0.29
0.06	-0.01	0.00	-0.58	1.45	-0.02
0.07	-0.01	1.00	-0.69	4.01	-0.39
0.06	-0.01	1.00	-1.08	7.79	-0.46
0.01	-0.02	1.00	-1.28	7.88	-0.61
-0.01	-0.02	1.00	-0.49	1.92	-2.51
0.01	-0.02	1.00	0.18	-4.63	-1.71
0.04	-0.01	1.00	0.41	-7.80	0.68
0.07	-0.01	1.00	0.32	-6.16	0.59
0.06	-0.02	1.00	-0.21	-2.87	0.13
0.03	-0.02	1.00	-0.16	-2.80	0.13
0.05	-0.02	1.00	0.06	-4.83	0.17
0.06	-0.01	1.00	-0.08	-4.15	-1.44
0.05	-0.01	0.00	-0.55	-0.46	-7.73
0.09	-0.01	1.00	-0.34	-0.90	-3.40
0.06	-0.01	1.00	-0.69	1.97	-1.60
0.02	-0.02	1.00	-0.46	0.67	-1.32
0.07	-0.01	1.00	-0.27	-1.80	-0.55
0.08	-0.01	1.00	-0.81	2.67	-0.33
0.03	-0.02	1.00	-0.81	3.44	-1.02
0.04	-0.02	1.00	-0.40	-0.37	0.01
0.10	-0.01	1.00	-0.56	1.29	0.02
0.05	-0.01	0.00	-1.00	5.52	-0.39
0.03	-0.02	1.00	-0.88	4.87	-0.44
0.04	-0.02	1.01	-0.74	3.62	-0.32
0.04	-0.02	1.00	-0.71	2.38	-0.56
0.03	-0.02	1.00	-0.54	1.54	-2.18
0.04	-0.01	1.00	-0.26	-0.35	-2.03
0.06	-0.01	1.01	-0.63	1.06	-1.96
0.05	-0.01	1.00	-0.77	3.01	-0.76
0.04	-0.01	1.00	-0.97	3.84	-0.13
0.00	-0.02	1.01	-0.62	2.05	0.00
0.01	-0.02	1.00	0.06	-3.41	0.26
0.05	-0.01	1.00	0.16	-5.12	0.33
0.07	-0.01	1.00	-0.19	-2.07	-0.83
0.05	-0.01	1.00	-0.52	0.90	-1.13
0.04	-0.02	1.00	-0.51	0.97	-1.32
0.06	-0.01	1.00	-0.56	1.74	-0.12
0.05	-0.01	1.00	-0.78	3.73	0.03
0.02	-0.02	1.00	-0.90	3.07	0.06
-0.02	-0.02	1.00	-0.16	-1.98	0.13
0.04	-0.02	1.01	0.45	-7.58	-0.24
0.07	-0.01	1.00	0.27	-5.54	-3.11
0.08	-0.01	1.00	-0.27	-2.06	-0.19
0.06	-0.01	1.00	-0.61	1.48	0.12
0.03	-0.02	1.00	-0.62	2.09	0.06
0.04	-0.02	1.00	-0.54	0.59	0.21
0.03	-0.02	1.00	-0.38	-0.13	0.37
0.02	-0.02	0.00	0.13	-3.70	0.45
0.06	-0.01	1.01	0.15	-5.70	0.16
0.10	-0.01	0.00	-0.12	-2.74	-0.06
0.09	-0.02	0.00	-0.95	4.47	-0.41
0.03	-0.02	1.01	-1.02	6.34	-1.08
0.01	-0.01	1.00	-0.84	3.54	-3.72
0.02	-0.02	0.00	-0.56	-0.29	-2.32
0.04	-0.02	1.00	0.09	-3.44	-2.07
0.09	-0.01	1.00	-0.04	-2.05	-1.07
0.10	-0.01	1.00	-1.08	5.03	-0.88
0.06	-0.01	1.00	-1.77	10.66	-0.61
0.03	-0.02	1.00	-2.02	12.41	-0.78
0.03	-0.02	1.00	-1.98	12.01	-0.96
0.01	-0.02	1.00	-1.90	12.08	-0.82
-0.01	-0.02	1.00	-1.65	10.17	-0.62
-0.02	-0.02	1.00	-1.22	6.83	-0.60
-0.02	-0.02	1.00	-0.84	3.10	-0.39
-0.02	-0.03	1.00	-0.17	-1.49	0.06
0.00	-0.02	1.00	0.03	-3.38	-0.74
-0.00	-0.02	1.00	0.08	-3.97	-1.15
0.01	-0.02	1.00	0.18	-4.96	-0.84
0.00	-0.02	1.00	0.30	-5.37	-2.22
0.01	-0.02	1.00	0.50	-7.28	-0.71
-0.00	-0.02	1.00	0.69	-9.74	0.46
-0.02	-0.03	1.00	1.32	-13.19	-3.06
0.02	-0.02	0.00	1.82	-17.70	-4.82
0.04	-0.00	1.00	2.06	-20.80	-5.33
0.14	0.01	0.00	0.58	-11.72	-1.76
0.07	-0.00	0.00	-1.35	-2.25	-3.44
0.03	-0.00	1.01	-0.45	-2.15	-8.85
0.06	-0.02	1.00	-0.87	-6.39	-5.04
0.08	-0.02	1.00	-0.84	-6.25	-2.12
0.12	-0.01	1.00	-0.64	-3.60	-1.96
0.09	-0.01	0.00	-0.40	4.25	0.33
0.05	-0.02	1.00	-0.42	3.70	0.23
0.10	-0.02	1.00	-0.07	2.94	0.44
0.12	-0.00	0.00	-0.06	6.98	0.04
0.05	-0.02	1.01	-0.46	11.17	-0.08
0.02	-0.01	1.01	-1.58	8.88	-0.00
0.01	-0.02	1.00	-1.07	4.06	-5.18
0.03	-0.01	1.00	-0.61	0.50	-6.73
0.09	-0.01	1.00	-0.27	-0.72	-1.90
0.09	-0.01	1.00	-1.17	5.32	-0.53
0.07	-0.01	1.00	-1.93	10.83	-0.50
0.01	-0.02	1.00	-2.20	12.28	-0.70
0.01	-0.02	1.00	-1.51	8.39	-0.56
0.03	-0.01	1.00	-1.39	7.27	-0.35
-0.01	-0.02	1.00	-1.26	6.01	-0.48
0.02	-0.02	1.01	-0.77	2.70	-0.19
0.05	-0.01	1.00	-0.90	3.95	-0.33
0.05	-0.01	1.00	-1.64	9.62	-0.45
0.03	-0.01	1.00	-2.39	14.20	-0.84
-0.08	-0.05	1.00	-2.62	8.95	-0.68
-0.03	-0.03	1.00	-0.58	0.60	-0.45
0.02	-0.02	1.00	-0.17	-0.91	-1.20
0.02	-0.01	1.00	-1.13	3.36	-1.71
-0.00	-0.02	1.00	-1.64	5.50	-2.12
-0.00	-0.02	1.00	-1.49	5.86	-2.16
0.01	-0.02	1.00	-2.02	7.51	0.06
-0.02	-0.03	1.00	-2.36	8.68	-0.32
-0.04	-0.04	1.00	-1.79	5.72	0.28
0.00	-0.02	0.00	-1.74	5.14	1.04
-0.04	-0.02	1.00	-2.64	8.79	0.70
-0.05	-0.03	1.00	-2.40	6.77	1.96
-0.02	-0.03	1.01	-1.68	5.05	0.34
-0.02	-0.02	0.00	-3.12	9.22	2.02
-0.05	-0.03	1.00	-3.73	11.19	2.98
-0.06	-0.04	1.00	-2.93	8.65	0.99
-0.03	-0.03	1.00	-2.94	8.41	0.45
-0.07	-0.03	0.00	-3.87	11.30	2.99
-0.13	-0.05	0.00	-2.11	5.74	0.07
-0.11	-0.05	0.00	0.45	-3.20	0.35
-0.09	-0.04	0.00	2.05	-9.01	0.75
-0.08	-0.04	0.00	3.22	-13.30	0.97
-0.06	-0.03	1.00	4.18	-16.38	1.09
-0.03	-0.04	0.00	5.00	-19.01	-1.53
0.00	-0.01	1.00	4.28	-18.96	-2.27
-0.01	-0.02	1.00	2.87	-15.14	-0.17
-0.04	-0.03	1.00	3.38	-17.33	-0.74
0.07	0.01	1.01	3.43	-21.31	-3.31
0.04	-0.02	1.00	0.55	-11.23	-5.77
-0.00	-0.02	1.00	0.91	-10.49	-8.85
0.03	-0.01	1.00	1.26	-13.01	-4.77
0.05	-0.01	1.00	0.74	-10.93	-3.47
0.02	-0.02	1.00	0.55	-9.62	-5.23
0.03	-0.02	1.00	1.06	-12.83	-6.37
0.05	-0.01	1.00	1.50	-15.67	-0.87
0.13	-0.00	0.00	0.74	-10.13	0.12
0.10	-0.00	1.00	-0.10	-4.83	-0.06
0.02	-0.00	1.01	-0.68	-3.81	-1.42
0.02	-0.01	1.01	-0.30	-11.04	-1.60
0.08	-0.02	0.00	-0.55	-14.65	-0.41
0.11	-0.03	0.00	-1.21	-12.84	-0.79
0.11	0.01	1.00	-0.97	-10.20	-0.27
0.07	-0.00	1.00	-0.83	-9.10	-0.68
0.04	-0.02	1.00	-1.28	-16.40	-1.54
0.12	-0.01	0.99	-1.46	-22.65	-6.08
0.18	-0.00	0.99	-1.29	-20.30	-5.03
0.19	0.01	0.00	-0.84	-12.31	-2.19
0.19	-0.01	0.99	-0.64	-3.80	0.15
0.13	-0.01	0.00	-0.60	-0.03	0.03
0.12	-0.01	0.00	-0.38	-3.16	0.34
0.13	-0.01	0.00	-0.68	-4.69	-0.10
0.14	-0.01	0.99	-0.50	-6.63	-0.10
0.16	-0.03	0.99	-0.69	-7.25	-0.24
0.18	-0.02	0.99	-0.84	-4.80	-0.47
0.17	-0.02	0.99	-0.53	-1.80	-0.22
0.14	-0.02	0.99	-0.87	-1.58	-1.36
0.19	-0.02	0.99	-0.36	-2.30	-0.55
0.27	-0.02	0.99	-1.20	5.76	-2.62
0.23	-0.02	0.99	-0.96	23.37	-3.98
0.14	-0.01	0.99	0.59	28.36	1.29
0.10	-0.02	0.00	0.46	27.42	0.24
0.08	-0.01	1.00	0.64	24.39	0.93
0.06	-0.03	1.00	-0.04	20.38	0.13
0.06	-0.01	0.00	-0.03	16.90	-1.37
0.06	0.01	1.01	-0.53	14.38	-0.70
0.06	-0.02	1.00	-1.58	12.84	-1.00
0.06	-0.02	1.00	-1.54	12.62	-0.61
0.06	-0.02	1.00	-1.47	12.76	-0.64
0.10	-0.01	1.00	-1.81	16.17	-0.75
0.07	-0.01	0.00	-2.46	23.75	0.72
0.01	-0.01	0.99	-2.77	29.69	7.52
-0.04	-0.00	1.02	-3.32	25.91	4.63
-0.01	-0.04	1.00	-4.57	17.50	5.72
-0.06	-0.03	1.01	-4.72	17.62	6.43
-0.04	-0.03	1.00	-3.47	9.69	3.74
-0.01	-0.02	1.00	-3.41	9.66	2.96
-0.03	-0.03	1.00	-3.67	11.01	2.82
0.02	-0.03	1.00	-5.11	15.70	6.70
0.02	-0.01	0.00	-10.33	30.17	13.83
-0.10	-0.02	0.99	-13.20	38.42	15.10
-0.20	-0.08	0.00	-9.46	26.79	9.40
-0.26	-0.08	0.99	-2.36	4.47	3.37
-0.17	-0.08	0.00	4.13	-16.30	0.81
-0.09	-0.04	0.00	6.37	-22.53	-1.54
-0.06	-0.03	0.00	6.12	-21.53	-2.62
-0.07	-0.04	0.00	5.66	-21.87	0.42
-0.11	-0.05	0.00	6.80	-26.11	-0.18
-0.14	-0.05	0.99	10.93	-38.76	-6.89
-0.10	0.04	1.03	12.64	-59.35	-14.04
0.07	-0.03	0.99	0.90	-50.34	-12.97
0.10	-0.01	0.99	0.99	-43.81	-12.55
0.10	-0.02	0.99	-0.03	-46.49	-5.34
0.10	-0.02	0.99	-0.34	-45.91	-5.00
0.17	-0.01	0.98	-0.48	-45.99	-6.66
0.14	0.03	0.99	-2.88	-41.97	-14.48
0.31	0.11	0.98	5.41	-9.66	0.11
0.17	0.03	0.99	-2.46	4.21	1.94
0.13	-0.01	0.00	-3.28	4.17	-1.50
0.18	-0.05	0.99	0.42	-1.96	-0.29
0.22	-0.01	0.98	0.90	-0.65	1.79
0.21	-0.05	1.01	-1.82	7.77	7.43
0.22	0.01	0.99	1.42	4.21	11.54
0.24	-0.02	0.99	0.22	14.26	0.01
0.25	0.01	0.99	1.77	28.41	9.25
0.21	-0.00	0.99	2.41	46.22	8.24
0.16	-0.01	0.98	2.96	62.10	10.33
0.01	-0.03	0.99	1.62	62.44	13.24
-0.09	-0.05	1.01	-5.25	42.71	7.79
-0.08	-0.05	1.00	-2.68	20.21	4.20
-0.06	-0.03	1.00	-0.90	4.55	1.53
-0.02	-0.02	1.00	0.01	-1.95	0.19
0.04	-0.02	1.00	0.10	-3.96	0.55
0.01	-0.02	1.00	-0.10	-2.59	0.48
-0.02	-0.02	1.00	0.62	-7.12	0.60
-0.01	-0.02	1.00	1.54	-14.80	0.44
-0.02	-0.02	0.00	2.68	-23.62	-2.61
0.03	0.08	1.00	0.19	-24.96	-5.97
-0.01	-0.00	1.00	-2.48	-34.02	-9.46
0.09	-0.02	0.99	-2.12	-44.44	-12.37
0.15	-0.02	0.99	-3.14	-39.72	-11.30
0.18	-0.02	0.99	-3.09	-37.79	-12.68
0.26	-0.03	0.99	-1.73	-23.59	-6.09
0.22	-0.01	0.00	-0.71	-11.39	-1.80
0.20	0.01	0.99	-0.83	3.37	0.92
0.12	-0.04	0.99	-1.22	1.20	-2.76
0.22	-0.03	0.98	-1.81	0.37	-4.43
0.20	-0.01	0.99	0.01	4.10	-1.02
0.21	-0.02	0.99	-0.44	8.82	1.69
0.23	-0.03	0.99	1.41	16.83	6.94
0.21	-0.00	0.99	2.04	27.77	10.59
0.09	-0.02	0.00	1.40	32.42	12.38
0.05	-0.01	0.00	1.61	26.90	9.65
0.09	-0.02	0.00	0.86	16.82	4.70
0.11	-0.01	0.00	0.96	16.45	5.11
0.08	-0.02	1.00	1.03	18.51	9.53
0.04	-0.03	1.00	-0.55	12.94	5.15
0.07	-0.02	1.00	0.34	7.89	4.28
0.09	-0.02	1.00	0.44	7.83	4.09
0.09	-0.02	1.00	0.23	10.01	3.46
0.07	0.02	1.00	-0.39	13.71	6.55
0.01	-0.02	1.01	-1.16	9.43	5.53
0.05	-0.02	1.01	-0.76	6.25	3.44
0.05	-0.01	1.00	-0.93	6.42	2.18
0.06	-0.02	1.00	-0.84	5.64	6.24
0.07	-0.01	1.00	-1.29	10.15	6.42
0.07	-0.02	1.00	-1.95	16.00	7.50
0.02	-0.01	1.00	-2.51	18.07	9.33
-0.03	-0.02	1.00	-1.00	12.31	8.75
-0.02	-0.03	1.00	-0.75	3.80	3.96
0.01	-0.01	1.00	-0.51	2.60	1.37
0.12	0.00	1.00	-1.39	5.38	8.51
-0.00	-0.01	1.01	-2.35	11.78	16.06
-0.08	-0.05	1.00	-1.37	6.33	14.97
-0.01	-0.06	1.00	-0.84	0.76	16.54
0.07	0.01	1.00	-3.94	13.86	18.38
0.04	0.01	1.00	-5.97	21.71	22.28
0.05	-0.03	0.99	-10.72	31.63	27.52
-0.01	0.02	1.02	-21.27	40.69	27.09
-0.13	-0.14	1.00	-21.47	47.07	30.06
-0.14	-0.06	1.02	0.29	40.18	28.32
-0.04	-0.01	1.03	8.47	46.22	22.14
-0.24	0.00	1.01	-1.05	47.94	11.08
-0.17	-0.01	1.02	2.16	37.12	10.65
-0.18	-0.03	0.99	1.52	43.50	16.38
-0.21	-0.03	0.94	3.85	34.23	21.50
-0.23	-0.03	0.93	1.27	31.55	14.52
-0.31	0.00	0.96	-1.45	31.57	10.17
-0.41	-0.00	0.96	-2.61	6.45	11.04
-0.41	0.01	0.94	-8.48	-34.77	15.08
-0.36	-0.05	0.95	-16.39	-75.06	16.48
-0.27	-0.04	0.97	-16.27	-108.18	17.22
-0.10	-0.07	0.94	-20.00	-132.73	16.11
0.04	-0.09	0.96	-19.36	-120.55	10.30
0.08	-0.09	0.99	-1.58	-99.35	6.26
0.14	-0.09	0.98	6.81	-81.21	5.73
0.18	-0.10	0.95	16.25	-70.89	4.28
0.20	-0.04	0.94	19.21	-61.64	1.38
0.22	-0.02	0.96	12.36	-50.74	-2.55
0.27	-0.02	0.96	9.94	-44.46	-3.08
0.31	-0.00	0.96	11.48	-40.61	-3.68
0.32	0.01	0.96	8.30	-33.71	-2.91
0.29	-0.01	0.98	2.74	-33.53	-4.00
0.31	-0.03	0.98	6.03	-40.26	-1.82
0.38	0.01	0.94	9.97	-34.05	-0.51
0.36	0.02	0.96	3.38	-21.64	-0.73
0.37	-0.04	0.94	-3.79	-16.42	-1.85
0.39	-0.01	0.92	-4.07	-6.82	-3.75
0.39	-0.02	0.94	-4.54	0.34	-2.25
0.37	-0.02	0.95	-1.94	5.54	-0.46
0.40	-0.01	0.94	-0.23	9.70	0.61
0.42	-0.02	0.93	-0.27	22.93	-0.93
0.38	0.00	0.97	-3.09	43.68	-2.16
0.36	-0.02	0.97	-1.26	59.54	-0.97
0.30	-0.01	0.98	2.45	66.99	-0.56
0.25	-0.01	0.98	7.54	72.98	-1.22
0.21	0.02	0.97	5.55	74.29	-4.73
0.14	0.01	0.99	0.58	68.94	-4.13
0.13	-0.00	0.98	-0.10	63.00	-3.56
0.11	-0.00	0.00	1.49	62.98	-4.42
0.04	-0.01	0.98	-0.00	62.31	-4.52
0.03	-0.01	0.97	-2.06	54.11	-4.12
-0.02	-0.01	0.98	-2.43	55.68	-4.41
-0.09	0.01	0.98	-1.58	52.39	-2.95
-0.12	-0.01	1.00	-4.89	41.36	-1.34
-0.11	-0.01	0.97	-2.20	31.14	-0.94
-0.11	-0.01	0.98	-3.80	32.53	-3.58
-0.13	-0.00	1.01	-6.04	33.85	-3.25
-0.14	-0.01	0.00	-5.92	35.20	-3.23
-0.16	-0.03	0.98	-4.54	38.05	-2.93
-0.21	-0.00	0.99	0.31	36.05	-3.32
-0.20	-0.01	0.99	0.16	29.29	-0.34
-0.23	-0.03	0.98	0.57	23.46	1.30
-0.20	-0.02	0.96	0.74	21.73	3.66
-0.21	0.01	0.96	4.56	23.49	3.28
-0.24	-0.01	0.95	0.16	23.56	3.22
-0.27	-0.01	0.98	1.24	28.28	2.39
-0.31	-0.02	0.97	1.12	23.71	3.74
-0.32	0.00	0.95	2.34	13.61	3.31
-0.30	0.00	0.94	-1.67	10.34	2.40
-0.26	-0.00	0.94	-6.08	16.79	1.71
-0.29	-0.02	0.94	-7.28	24.30	0.55
-0.34	-0.00	0.94	-5.04	23.04	0.47
-0.33	-0.01	0.94	-1.54	13.65	0.62
-0.32	-0.01	0.91	1.70	8.47	2.87
-0.33	-0.01	0.93	2.54	14.97	2.51
-0.37	0.01	0.95	-1.03	20.92	1.69
-0.39	-0.01	0.94	-4.08	18.90	-1.07
-0.36	-0.01	0.93	-4.99	15.43	-1.33
-0.36	-0.02	0.93	-7.40	21.68	-3.24
-0.40	-0.02	0.91	-10.91	26.26	-4.47
-0.44	-0.01	0.91	-7.53	15.87	-3.15
-0.50	-0.05	0.92	-5.94	0.52	-1.18
-0.43	-0.06	0.88	-4.04	-23.65	3.15
-0.38	-0.05	0.89	-3.18	-15.73	1.58
-0.45	-0.05	0.94	-2.25	-14.52	0.51
-0.43	-0.04	0.92	2.45	-32.41	1.83
-0.37	-0.03	0.95	2.86	-51.98	1.19
-0.22	-0.04	0.92	0.22	-50.84	1.19
-0.25	-0.04	0.95	-2.90	-30.03	-1.71
-0.33	-0.04	0.98	1.00	-24.18	1.06
-0.35	-0.02	0.95	6.68	-42.14	3.78
-0.28	-0.01	0.96	8.80	-65.88	4.62
-0.19	-0.02	0.98	5.44	-67.85	4.94
-0.16	-0.04	0.00	4.53	-57.57	4.31
-0.16	-0.01	0.99	5.25	-58.22	2.54
-0.13	0.00	0.97	3.52	-73.35	-0.12
-0.04	0.00	0.96	1.12	-85.16	-0.84
0.06	-0.01	0.96	-6.66	-77.21	-3.80
0.06	-0.03	0.00	-11.04	-64.72	-3.83
0.04	-0.02	1.01	4.54	-60.80	-1.21
0.07	-0.01	0.97	6.09	-67.15	-1.20
0.12	0.00	0.96	-1.44	-76.90	-1.19
0.22	-0.03	0.99	-6.21	-80.75	-2.09
0.25	-0.03	1.00	-4.90	-77.74	-4.28
0.28	-0.01	0.98	-3.60	-71.78	-3.69
0.28	-0.04	0.96	-1.77	-76.61	0.55
0.33	-0.02	0.90	-0.89	-81.78	3.11
0.33	-0.04	0.89	-6.64	-87.46	3.12
0.45	-0.05	0.92	1.39	-94.31	4.89
0.54	-0.04	0.90	4.10	-81.96	0.50
0.54	-0.03	0.83	4.49	-75.04	-3.64
0.50	-0.02	0.81	6.07	-75.91	-1.34
0.58	-0.02	0.81	5.25	-85.90	1.83
0.72	-0.02	0.75	8.39	-75.83	-3.07
0.78	0.02	0.74	6.52	-44.64	-3.25
0.79	-0.01	0.75	3.88	-15.48	-1.04
0.78	0.04	0.72	3.53	8.21	-0.79
0.71	0.02	0.72	-8.09	27.14	1.46
0.68	-0.03	0.79	-5.86	35.69	1.42
0.58	-0.01	0.82	-2.47	29.65	1.64
0.61	-0.03	0.78	-2.87	26.68	4.00
0.65	-0.01	0.81	-3.99	33.52	4.07
0.62	-0.03	0.83	-8.65	44.88	4.44
0.66	-0.05	0.80	-9.70	66.83	3.22
0.59	-0.07	0.86	-5.52	94.81	4.34
0.52	-0.02	0.85	1.87	109.42	5.38
0.39	-0.04	0.95	2.45	114.98	7.04
0.30	-0.02	0.95	16.58	103.01	7.97
0.32	0.04	0.89	18.14	96.35	6.22
0.25	-0.00	0.96	9.30	93.18	4.06
0.22	-0.01	0.96	5.45	87.45	-0.58
0.15	-0.02	0.95	3.43	85.77	-2.12
0.14	-0.02	0.99	5.95	81.40	-2.18
0.06	0.01	0.97	8.17	79.57	-4.90
0.04	0.03	0.99	5.30	77.44	-4.09
0.01	0.00	0.99	-4.22	80.69	-5.63
-0.07	-0.01	0.98	-5.52	85.81	-8.12
-0.14	-0.01	0.99	1.61	75.98	-5.60
-0.13	0.02	0.97	6.24	65.79	-4.71
-0.10	0.01	0.97	3.41	72.84	-6.47
-0.13	0.02	0.94	-4.54	91.99	-6.21
-0.25	-0.00	0.95	-8.09	102.66	-6.28
-0.34	0.00	0.94	-2.14	85.38	-8.01
-0.36	0.01	0.92	-0.15	75.43	-6.92
-0.40	-0.02	0.89	-4.64	77.75	-12.18
-0.38	0.02	0.85	-9.97	87.57	-18.55
-0.53	-0.07	0.89	-3.25	90.39	-16.08
-0.56	-0.02	0.80	2.26	75.91	-14.50
-0.60	0.02	0.77	-2.61	60.21	-9.95
-0.65	-0.08	0.84	-4.03	44.34	-6.73
-0.61	-0.04	0.78	-3.00	32.61	-1.83
-0.63	-0.05	0.77	-4.24	29.22	-2.45
-0.71	-0.06	0.78	-3.34	14.20	1.68
-0.67	-0.04	0.79	2.95	-6.53	5.85
-0.68	-0.04	0.79	0.74	-20.70	6.37
-0.70	-0.04	0.81	2.57	-38.43	7.07
-0.68	-0.04	0.82	3.86	-61.50	8.05
-0.60	-0.03	0.82	2.32	-79.43	10.72
-0.57	-0.01	0.85	0.69	-93.18	14.66
-0.54	-0.03	0.83	-1.45	-107.89	15.10
-0.39	-0.02	0.91	-1.74	-116.70	8.93
-0.28	-0.04	0.90	5.78	-113.84	8.88
-0.22	0.00	0.91	7.54	-102.93	9.13
-0.19	-0.01	0.94	4.50	-94.69	10.26
-0.08	-0.01	0.95	6.25	-90.54	7.91
-0.07	0.00	0.95	3.54	-84.03	4.07
-0.07	-0.01	0.95	2.40	-83.99	0.43
-0.17	0.08	0.96	-1.61	-98.23	-6.43
0.03	0.03	0.96	-14.55	-129.35	-13.87
0.22	-0.01	0.99	-27.23	-128.61	-11.90
0.28	-0.06	0.99	-22.98	-107.80	-5.02
0.37	-0.06	0.96	-15.04	-68.08	4.97
0.28	-0.08	0.96	-1.96	-54.80	6.74
0.28	-0.02	0.88	4.56	-65.21	9.65
0.40	-0.01	0.96	3.79	-65.16	1.91
0.37	-0.03	0.97	4.40	-60.92	-1.09
0.35	-0.03	0.92	6.00	-64.65	-1.80
0.46	-0.01	0.94	5.90	-63.89	-7.18
0.38	-0.01	0.85	-4.11	-59.48	-3.60
0.32	-0.07	0.83	-16.45	-103.06	9.23
0.76	-0.05	0.87	0.81	-101.34	-1.13
0.76	-0.04	0.81	9.07	-60.02	-6.18
0.79	-0.00	0.81	15.99	-31.71	-2.15
0.85	0.04	0.76	8.37	4.70	4.67
0.76	-0.01	0.74	3.51	27.69	7.49
0.74	0.01	0.77	-6.08	45.01	10.70
0.75	-0.09	0.79	-15.71	79.15	7.37
0.68	-0.14	0.84	5.70	126.07	1.45
0.50	-0.04	0.87	23.78	165.79	5.09
0.37	-0.01	0.86	15.65	182.51	2.22
0.24	-0.00	0.81	11.81	190.90	-4.69
0.08	0.05	0.91	17.02	196.07	-3.91
-0.03	-0.01	0.95	15.48	181.17	-3.03
-0.05	0.04	0.92	21.05	152.76	-7.21
-0.14	0.08	0.94	7.60	134.88	-8.66
-0.21	-0.01	0.96	-5.76	116.09	-13.94
-0.19	0.01	0.94	-3.63	98.91	-16.26
-0.38	0.01	0.95	-11.64	87.41	-8.28
-0.31	-0.03	0.90	-14.61	75.44	-6.47
-0.30	-0.07	0.87	-8.60	68.55	-15.96
-0.66	0.01	0.89	-1.38	60.83	-12.44
-0.64	-0.05	0.92	10.56	16.30	1.71
-0.58	0.02	0.95	11.14	-35.19	5.34
-0.61	0.03	0.92	3.69	-92.67	17.83
-0.47	0.04	0.91	-7.72	-146.10	27.47
-0.29	0.06	0.87	-30.06	-176.43	29.17
-0.09	-0.02	0.91	-40.84	-185.98	20.53
0.09	-0.07	0.97	-46.72	-143.06	13.23
0.24	-0.07	1.00	-29.86	-98.83	15.72
0.32	-0.18	1.01	-2.96	-42.96	19.29
0.20	-0.03	1.04	25.05	12.57	16.38
0.08	0.02	1.06	12.04	43.52	12.90
0.06	-0.10	0.96	17.96	41.14	11.43
0.05	-0.01	0.98	26.92	40.12	4.59
-0.03	-0.02	1.02	11.63	38.20	-1.09
0.00	-0.02	1.02	1.64	30.39	-3.90
0.02	-0.07	1.00	-5.74	28.98	1.99
-0.08	-0.13	0.90	-4.51	30.84	-2.71
-0.12	-0.08	0.99	9.56	19.55	-10.67
-0.06	0.02	1.05	12.10	12.83	-16.57
0.04	0.06	1.03	9.42	20.67	-15.75
0.08	0.10	1.03	-4.75	35.84	-11.11
-0.33	-0.18	0.94	-24.05	52.62	-24.17
-0.22	-0.04	0.94	-38.56	39.58	-15.98
-0.19	-0.10	0.00	-26.86	27.37	-7.36
-0.13	-0.11	0.97	-1.64	14.64	3.58
-0.12	-0.10	1.00	5.41	24.24	3.60
-0.15	-0.10	1.00	7.31	39.56	-4.47
-0.25	-0.12	1.01	13.66	30.28	-8.95
-0.27	-0.03	1.03	9.37	3.61	-4.11
-0.25	-0.07	1.06	4.72	-28.32	-0.79
-0.16	-0.03	1.02	12.19	-47.26	-7.03
-0.18	-0.02	0.99	0.01	-47.21	-7.11
-0.16	-0.01	0.95	0.92	-42.32	2.99
-0.07	-0.04	0.98	-3.62	-32.60	-4.70
-0.12	-0.02	0.99	6.36	-19.68	-7.43
-0.16	-0.00	0.97	11.78	-13.86	-3.03
-0.13	0.01	0.97	8.06	-24.21	4.67
-0.09	-0.01	0.96	5.06	-27.18	3.31
-0.09	0.02	0.96	-1.62	-28.08	3.29
-0.02	0.00	0.97	-7.83	-26.26	2.12
-0.01	-0.03	0.98	-9.75	-16.30	-2.67
-0.01	-0.03	0.98	-8.19	-4.82	-3.18
0.05	-0.06	0.96	-9.67	11.88	-4.68
0.00	-0.06	0.97	-16.05	32.48	-12.78
-0.03	-0.08	0.98	-21.24	39.29	-12.63
-0.08	-0.09	0.00	-22.71	37.79	-10.07
-0.11	-0.11	1.04	-23.75	25.25	-1.70
-0.11	-0.13	1.04	-16.03	15.58	0.42
-0.10	-0.13	1.06	-9.99	12.38	-2.78
-0.13	-0.14	1.04	-1.26	10.57	-8.75
-0.16	-0.11	1.03	2.90	4.53	-9.83
-0.16	-0.10	1.01	5.60	-6.09	-5.24
-0.13	-0.09	0.97	11.14	-12.53	-2.56
-0.15	-0.07	0.98	6.44	-16.51	-0.48
-0.08	-0.10	0.96	7.22	-20.66	-1.25
-0.10	-0.07	0.95	6.99	-19.01	-4.90
-0.11	-0.06	0.96	1.65	-17.34	-1.65
-0.08	-0.07	0.97	0.25	-13.61	3.17
-0.09	-0.07	0.99	0.77	-9.33	5.58
-0.07	-0.09	0.00	2.61	-9.33	6.36
-0.06	-0.06	0.99	5.09	-11.72	3.33
-0.03	-0.07	1.01	-3.73	-12.10	1.93
-0.02	-0.09	1.02	-3.94	-8.88	-0.51
0.00	-0.09	1.02	-1.93	-5.22	1.37
0.03	-0.08	1.01	0.00	3.61	-0.30
-0.04	-0.06	1.01	-2.68	10.91	-3.35
-0.04	-0.09	1.00	-1.79	9.78	0.94
-0.06	-0.08	1.00	3.71	8.95	0.53
-0.07	-0.08	0.99	5.45	4.06	1.12
-0.05	-0.08	0.99	3.83	0.74	1.31
-0.04	-0.07	0.98	2.80	2.55	-0.29
-0.04	-0.07	0.98	0.25	8.08	-0.29
-0.05	-0.08	1.00	-0.01	17.14	-1.69
-0.06	-0.07	0.00	3.44	21.05	-0.10
-0.06	-0.09	1.01	2.39	22.89	-1.74
-0.11	-0.09	1.00	3.77	20.29	-7.33
-0.15	-0.08	1.02	1.90	7.53	-6.89
-0.09	-0.08	0.00	3.40	0.59	-6.12
-0.09	-0.05	0.98	-1.80	2.89	-7.15
-0.11	-0.04	0.99	-5.68	6.84	-6.38
-0.12	-0.06	0.99	-2.73	9.11	-3.37
-0.14	-0.05	1.00	1.83	11.05	-3.75
-0.15	-0.06	0.00	1.67	11.52	-3.87
-0.16	-0.05	0.99	3.06	9.82	-1.77
-0.13	-0.07	0.99	4.80	9.77	0.63
-0.16	-0.06	0.97	5.63	14.10	-1.51
-0.15	-0.07	0.98	0.44	12.74	0.27
-0.14	-0.08	0.98	0.33	11.84	-1.09
-0.17	-0.07	0.98	2.22	7.81	-2.16
-0.15	-0.06	0.98	1.71	4.80	-2.58
-0.16	-0.05	0.98	1.68	5.21	-2.78
-0.17	-0.04	0.97	4.62	8.04	-2.93
-0.19	-0.05	0.97	1.52	8.63	-2.16
-0.20	-0.06	0.98	-0.39	7.24	-3.47
-0.22	-0.06	0.99	-0.74	4.47	-3.89
-0.21	-0.08	1.00	1.93	0.55	-2.27
-0.21	-0.08	0.99	6.08	-0.48	-0.34
-0.17	-0.07	0.99	6.69	1.74	0.96
-0.16	-0.04	0.98	8.48	7.61	-0.97
-0.20	-0.03	0.98	5.48	10.06	-2.83
-0.23	-0.04	0.98	3.49	5.70	-1.61
-0.21	-0.06	0.99	0.64	-2.52	0.07
-0.20	-0.06	0.99	1.18	-5.94	-2.38
-0.21	-0.05	0.98	1.03	-6.78	-2.61
-0.19	-0.03	0.98	2.26	-5.27	-1.67
-0.18	-0.02	0.96	1.61	-3.70	-1.72
-0.18	-0.03	0.97	-3.58	-2.49	-2.15
-0.21	-0.03	0.96	-0.04	-1.69	-1.64
-0.21	-0.01	0.95	0.48	-4.51	-1.07
-0.22	-0.01	0.96	-2.73	-7.03	0.27
-0.16	-0.04	0.96	-1.72	-7.41	-4.06
-0.22	-0.00	0.98	-0.59	-16.66	-4.26
-0.12	-0.03	0.98	2.19	-6.55	3.10
-0.13	-0.01	0.98	2.06	4.74	1.32
-0.19	-0.00	0.99	1.13	12.08	2.96
-0.22	-0.04	0.97	-0.71	3.65	5.06
-0.21	-0.05	0.97	0.79	-5.15	1.59
-0.20	-0.06	0.98	-5.22	-16.09	3.82
-0.14	-0.07	0.99	-4.35	-19.78	1.87
-0.16	-0.05	0.00	-4.91	-15.35	1.32
-0.14	-0.06	1.01	-8.28	-10.26	4.32
-0.10	-0.08	1.03	-0.01	-4.31	4.52
-0.12	-0.04	1.03	7.17	-0.21	4.16
-0.11	-0.05	0.00	4.08	-1.75	0.48
-0.13	-0.03	0.98	-1.93	-11.25	-0.97
-0.09	-0.05	0.98	-1.71	-19.63	0.74
-0.08	-0.04	0.98	0.42	-26.13	-3.12
-0.04	-0.05	0.98	-1.63	-25.71	-4.06
-0.05	-0.04	1.01	-0.68	-13.08	-3.80
-0.06	-0.04	1.01	8.70	6.75	2.99
-0.09	-0.03	0.00	11.32	12.62	3.28
-0.13	-0.01	0.98	7.54	11.44	1.85
-0.08	-0.02	0.97	-9.43	-5.29	4.57
-0.07	-0.08	1.06	-10.16	-16.23	-3.06
-0.02	-0.06	1.00	5.35	-18.78	2.09
-0.05	-0.03	0.98	7.62	-13.19	-6.23
-0.05	-0.00	0.98	-1.64	-16.03	-0.55
-0.02	-0.03	1.00	-6.21	-12.51	1.79
-0.01	-0.05	1.01	-0.28	-1.83	3.13
-0.04	-0.01	0.99	2.94	9.49	3.38
-0.07	-0.03	1.00	-3.51	8.24	0.81
-0.07	-0.04	0.00	-0.36	1.79	0.09
-0.04	-0.04	0.99	-4.84	-6.26	-0.32
-0.02	-0.05	1.01	-9.69	-8.61	-2.32
0.01	-0.06	1.00	-0.64	-9.76	-5.82
-0.07	-0.05	0.99	8.20	-9.70	-1.19
-0.03	-0.03	0.99	1.76	-4.11	3.66
-0.08	-0.02	1.01	-0.32	3.84	4.02
-0.07	-0.04	1.02	1.24	2.61	6.07
-0.07	-0.03	1.01	3.29	-0.06	5.54
-0.04	-0.03	1.00	0.01	-3.12	6.29
-0.01	-0.03	0.99	-2.41	0.12	5.73
-0.05	-0.03	1.01	-4.72	0.71	5.07
-0.02	-0.04	0.98	-4.99	-3.81	8.38
-0.01	-0.05	1.00	-9.39	-4.50	6.87
0.00	-0.07	1.02	-1.87	-5.12	3.69
0.00	-0.05	1.02	2.86	-3.06	1.21
0.06	-0.07	1.00	1.61	-2.34	0.46
0.00	-0.05	1.02	-2.27	-7.87	-3.93
-0.03	-0.06	0.99	0.69	-14.58	-2.80
0.05	-0.06	0.99	3.75	0.56	-2.64
-0.04	-0.04	0.96	-0.43	11.95	-3.51
-0.05	-0.04	0.97	-2.02	7.42	-0.93
-0.05	-0.04	0.99	-3.35	2.42	-1.09
-0.04	-0.02	0.99	-7.82	-4.57	-1.08
-0.01	-0.04	1.02	-10.63	-5.23	1.19
0.00	-0.06	1.04	-3.83	3.75	2.05
-0.03	-0.03	1.01	1.45	7.40	2.55
-0.03	-0.06	1.03	-2.77	2.27	1.26
-0.03	-0.08	1.04	3.77	1.77	5.12
-0.01	-0.05	1.00	2.96	2.99	1.29
-0.04	-0.05	1.01	0.20	0.39	1.68
-0.07	-0.08	1.02	2.15	-1.39	4.31
-0.02	-0.06	0.98	3.57	0.78	6.63
-0.04	-0.03	0.98	0.36	8.15	0.26
-0.07	-0.04	0.99	-2.36	5.12	4.04
-0.02	-0.06	1.00	-6.20	-0.97	4.73
0.00	-0.06	0.99	-2.56	-7.23	-2.37
0.02	-0.07	1.02	-5.53	-8.73	0.64
0.02	-0.09	1.03	-3.99	-1.03	-1.90
-0.06	-0.05	1.01	3.12	1.77	-3.03
-0.06	-0.04	0.00	3.08	0.90	1.16
-0.07	-0.04	0.00	-0.53	2.01	2.89
-0.02	-0.05	0.99	-6.44	-3.89	3.14
-0.00	-0.07	1.01	-5.04	-8.84	-0.61
0.01	-0.07	1.01	2.05	-4.47	-1.35
-0.02	-0.04	0.00	6.02	5.55	-1.16
-0.02	-0.02	0.97	-0.35	6.82	-1.42
-0.05	-0.05	0.99	-6.37	-0.06	0.68
-0.05	-0.06	0.00	-5.27	-3.10	2.70
-0.04	-0.06	1.00	-6.90	-2.88	5.12
-0.01	-0.07	1.02	-2.67	0.63	4.18
-0.03	-0.04	1.01	4.67	4.63	0.19
-0.04	-0.03	1.02	3.02	0.94	2.50
-0.01	-0.05	1.01	2.60	0.62	2.15
-0.05	-0.04	0.00	6.08	0.52	5.84
0.01	-0.06	1.01	-2.08	6.29	4.53
-0.05	-0.07	1.02	-3.31	3.02	-2.05
0.02	-0.05	0.97	3.12	-8.49	2.57
-0.02	-0.05	0.96	-3.69	-3.37	-1.32
-0.00	-0.06	0.99	-4.02	-1.29	-2.37
-0.02	-0.08	1.00	-3.50	-0.13	-0.85
-0.04	-0.08	1.00	-2.21	6.12	-0.25
-0.05	-0.07	0.98	-12.20	3.02	-0.85
-0.04	-0.06	1.00	-13.29	-3.82	-4.83
-0.05	-0.07	1.03	-9.49	-8.21	-1.17
0.04	-0.08	1.01	-2.83	1.76	-0.85
-0.05	-0.10	1.03	-4.06	5.21	-3.00
-0.02	-0.11	1.04	4.75	5.33	-3.03
-0.03	-0.07	1.03	13.13	0.62	-2.91
-0.06	-0.02	0.98	6.62	2.32	1.09
-0.05	-0.02	0.96	-7.02	3.24	-0.55
-0.12	-0.03	0.99	-10.53	-5.62	4.21
0.03	-0.10	0.99	-0.13	-4.06	4.12
-0.00	-0.07	0.00	5.21	1.28	0.27
0.00	-0.08	0.00	1.61	4.65	-0.10
-0.04	-0.06	1.00	-0.87	6.22	1.55
-0.07	-0.05	0.99	1.19	2.12	4.70
-0.06	-0.04	0.98	-2.73	-2.99	5.00
-0.05	-0.06	0.99	-6.68	-6.53	2.46
-0.01	-0.05	0.96	-6.40	-6.39	1.90
0.01	-0.10	1.02	-1.57	-6.66	4.19
-0.01	-0.08	1.00	1.19	-4.57	4.18
-0.04	-0.02	0.94	-7.55	-3.81	5.69
0.05	0.05	1.07	2.59	-7.17	12.72
-0.00	-0.12	0.98	-7.39	-5.97	8.65
0.05	-0.10	0.98	-4.62	-0.82	5.08
-0.01	-0.07	1.01	-0.64	6.73	-2.09
-0.02	-0.09	0.99	-0.29	0.42	-2.22
0.00	-0.08	1.00	-0.35	-0.02	-0.80
0.03	-0.08	1.01	-1.10	5.84	-5.07
-0.01	-0.07	1.01	-2.78	2.45	-7.74
-0.07	-0.09	0.99	-3.24	-0.04	-4.98
-0.04	-0.12	0.97	-3.02	-2.97	0.28
-0.01	-0.11	0.99	1.58	-6.50	1.02
-0.03	-0.08	1.01	1.77	-5.40	-2.74
0.03	-0.10	0.99	2.04	-3.04	-0.39
0.03	-0.08	0.99	5.97	1.57	-1.00
-0.02	-0.08	1.03	7.25	4.90	-2.36
-0.06	-0.08	1.03	-0.11	-1.19	4.40
-0.02	-0.07	1.01	-10.52	-4.87	-5.10
-0.04	-0.05	0.99	-15.00	-23.69	-6.16
0.04	-0.10	1.00	-6.92	-24.84	7.69
0.06	-0.12	0.99	-11.15	-15.44	13.54
0.09	-0.12	0.96	-1.17	-12.49	12.16
0.17	-0.12	0.97	11.38	-5.40	7.86
0.01	-0.08	0.00	9.35	11.46	0.45
0.03	-0.08	1.01	7.87	2.92	0.89
0.03	-0.07	1.03	3.87	4.41	-2.61
-0.01	-0.10	0.98	-1.32	6.35	1.10
0.01	-0.09	0.99	2.44	3.12	2.25
-0.01	-0.05	1.02	3.38	3.84	-3.38
-0.03	-0.07	0.99	2.34	-7.69	-5.66
0.08	-0.07	0.99	7.53	-12.55	-2.39
-0.01	-0.06	1.04	-4.03	4.08	-1.64
-0.03	-0.09	1.01	-10.72	-3.78	3.34
-0.01	-0.09	0.99	-9.78	-9.88	4.19
0.09	-0.11	0.97	-7.05	-11.83	3.15
-0.01	-0.10	0.99	-2.12	-3.10	3.45
0.04	-0.09	1.00	-2.83	-8.71	7.34
0.12	-0.06	1.02	-5.15	-6.12	5.79
0.09	-0.11	0.98	-2.09	0.72	2.70
0.04	-0.12	0.99	-0.70	-0.02	14.00
0.06	-0.10	1.00	-0.12	17.93	11.31
-0.01	-0.11	0.99	-0.36	4.75	5.69
0.04	-0.10	0.99	1.97	-0.46	3.17
0.04	-0.09	1.01	2.28	4.50	-3.71
0.01	-0.11	1.00	-1.88	1.40	-3.58
0.04	-0.11	0.00	-0.01	1.33	-4.77
0.02	-0.11	0.95	2.64	-3.64	-8.67
0.09	-0.11	0.98	11.04	-3.96	-14.29
0.00	-0.09	1.03	8.93	-0.02	-6.30
-0.01	-0.06	1.02	1.32	1.06	5.66
0.03	-0.06	1.01	-0.89	-9.92	4.72
0.11	-0.08	0.00	-1.35	-3.64	-1.48
0.07	-0.09	0.99	-0.71	1.82	-0.69
-0.13	-0.06	1.05	-3.58	-6.48	11.96
0.22	-0.11	0.96	-9.05	-12.78	2.47
0.14	-0.14	0.96	1.91	15.18	-11.80
-0.01	-0.09	1.02	4.60	8.91	5.25
0.01	-0.09	0.99	1.96	0.80	5.25
0.04	-0.08	0.97	11.47	2.75	-1.71
0.19	-0.13	0.00	25.10	-13.78	-1.04
0.08	-0.04	1.14	10.40	-6.66	3.01
0.06	-0.10	0.96	-19.64	-4.49	-6.58
-0.08	-0.14	0.88	4.38	9.71	-25.12
0.01	-0.01	0.94	35.47	18.78	1.74
-0.00	-0.01	0.99	49.98	18.09	20.79
-0.03	0.03	1.12	38.53	5.74	12.78
0.01	0.00	1.09	4.67	-18.68	10.01
0.02	0.00	1.01	-8.62	-13.43	16.38
0.05	-0.00	1.01	-9.64	-2.90	12.42
0.02	-0.02	0.98	-11.49	-3.51	6.95
0.01	-0.06	0.97	-3.43	-13.68	5.34
0.02	-0.05	0.99	3.33	-19.37	7.48
0.09	-0.06	0.99	5.94	-18.83	4.06
0.09	0.00	1.01	8.03	-10.71	3.42
0.06	-0.01	1.01	5.01	-4.60	2.09
0.09	0.00	1.00	4.18	-6.52	0.38
0.08	0.03	1.02	0.89	-9.98	0.74
0.10	0.00	1.00	-0.71	-12.91	3.48
0.12	-0.00	1.01	-1.07	-11.94	5.16
0.16	-0.00	0.00	-3.70	3.77	0.17
0.10	-0.00	0.00	-2.93	9.67	-4.52
0.07	-0.01	1.01	-2.28	6.48	0.40
0.11	-0.01	1.01	-6.42	6.73	-0.06
0.07	-0.01	1.02	-10.25	9.97	-1.97
0.08	-0.01	0.00	-13.19	11.16	-1.64
0.03	-0.03	0.00	-11.47	10.01	-0.52
0.01	-0.02	1.00	-10.37	2.38	5.56
0.09	-0.05	0.99	-10.04	-3.90	6.93
0.05	-0.03	1.00	-7.82	0.61	-0.41
0.01	-0.03	1.01	-7.91	-1.13	4.39
0.05	-0.06	0.99	-7.77	-9.37	12.46
0.11	-0.07	0.00	-4.95	-11.87	9.11
0.11	-0.08	0.99	-4.47	-4.90	6.98
0.11	-0.07	0.99	-3.35	-0.79	4.73
0.08	-0.08	0.00	-2.96	2.10	1.09
0.09	-0.06	0.99	-1.33	3.54	-0.64
0.09	-0.07	0.99	2.43	7.38	-1.91
0.06	-0.07	1.01	1.67	8.66	-4.24
0.01	-0.04	1.01	-1.77	5.32	-2.14
0.04	-0.04	0.99	0.05	-0.51	-1.31
0.05	-0.05	0.00	1.92	-2.48	-2.65
0.05	-0.04	1.02	1.26	-2.63	-4.39
0.06	-0.05	1.01	-3.34	-4.36	-1.45
0.09	-0.05	1.01	-4.57	-5.98	1.02
0.09	-0.06	0.99	-3.19	-3.59	0.32
0.09	-0.06	0.98	-0.77	0.20	0.67
0.08	-0.06	1.00	3.29	5.33	1.48
0.06	-0.07	1.00	2.99	5.96	0.74
0.06	-0.05	0.00	4.12	4.66	1.49
0.06	-0.03	1.02	2.32	3.83	0.96
0.04	-0.04	1.01	-1.58	0.85	1.28
0.04	-0.06	1.01	-3.78	-1.09	-0.25
0.05	-0.07	1.00	-6.13	-2.77	-0.76
0.08	-0.07	0.00	-4.20	-3.74	-0.16
0.08	-0.08	0.00	-3.45	-1.59	-1.14
0.08	-0.07	0.00	-2.13	0.16	-2.15
0.08	-0.06	0.00	-1.31	1.00	-1.36
0.08	-0.06	1.00	-0.80	1.22	-0.51
0.07	-0.07	1.00	-0.61	1.96	-0.01
0.06	-0.07	0.99	0.39	2.37	0.05
0.06	-0.03	0.99	1.42	3.07	-0.79
0.05	-0.04	1.01	2.92	2.32	-0.75
0.05	-0.06	1.01	1.35	1.45	-0.27
0.05	-0.05	1.01	0.58	-0.70	0.65
0.07	-0.05	1.01	-3.99	-0.32	-0.50
0.06	-0.06	0.00	-4.93	0.47	-0.34
0.06	-0.06	1.01	-5.66	-0.81	0.64
0.07	-0.07	0.99	-5.39	-1.48	1.05
0.07	-0.07	1.00	-4.36	0.69	0.11
0.06	-0.09	0.99	-1.26	0.45	1.77
0.08	-0.08	1.01	-0.40	0.74	1.23
0.05	-0.09	0.00	-2.33	2.42	0.52
0.05	-0.08	0.00	-0.78	1.38	0.58
0.05	-0.08	0.99	1.80	1.02	-0.02
0.06	-0.08	1.00	3.80	1.87	-0.73
0.06	-0.07	1.00	3.28	1.89	-1.09
0.06	-0.06	1.01	2.68	1.73	-0.29
0.06	-0.06	1.01	-1.19	2.18	-0.30
0.05	-0.06	0.00	-0.98	2.12	-0.64
0.04	-0.05	1.00	0.61	2.25	-0.71
0.05	-0.07	1.00	-0.31	1.35	-0.90
0.05	-0.06	1.00	-1.16	0.41	-0.33
0.05	-0.07	1.01	-1.89	-0.55	0.28
0.05	-0.08	0.00	-2.15	-1.16	0.37
0.05	-0.08	0.00	-1.45	-0.69	0.36
0.06	-0.08	0.00	-0.51	0.01	-0.70
0.05	-0.07	0.99	2.18	0.37	-1.22
0.04	-0.08	1.00	3.88	0.21	-1.42
0.04	-0.07	1.01	3.77	-2.43	-0.30
0.07	-0.06	0.00	4.16	-3.63	0.83
0.07	-0.05	1.01	4.67	-1.76	-0.28
0.07	-0.05	1.01	2.44	-0.09	-0.35
0.07	-0.06	1.00	0.15	0.51	-0.12
0.06	-0.06	0.99	2.18	3.19	-1.41
0.05	-0.06	1.00	3.03	3.95	-1.64
0.05	-0.05	1.01	1.97	3.62	-1.52
0.04	-0.04	1.01	0.32	3.68	-1.51
0.03	-0.05	1.01	-2.19	1.77	-0.18
0.04	-0.06	0.00	-1.95	-0.89	0.63
0.04	-0.06	1.00	-1.09	-1.23	-0.48
0.05	-0.06	0.00	-0.09	-0.42	-0.03
0.06	-0.05	1.00	0.59	-0.74	-0.58
0.06	-0.05	0.00	0.50	0.17	-0.27
0.05	-0.05	1.01	-0.49	2.29	-1.45
0.03	-0.05	1.01	-1.93	0.50	-0.81
0.04	-0.06	0.00	-2.32	-1.81	0.87
0.06	-0.06	0.00	-1.36	-2.10	0.97
0.05	-0.06	1.00	-0.65	-0.55	-0.51
0.05	-0.06	0.00	-0.61	-0.44	-0.22
0.06	-0.06	1.00	0.11	0.03	-0.28
0.04	-0.06	1.00	0.12	0.66	-0.56
0.05	-0.06	1.00	0.06	-0.45	0.50
0.05	-0.05	1.00	0.42	0.48	-0.03
0.05	-0.05	1.00	0.25	0.78	0.06
0.05	-0.06	1.00	0.39	1.35	-0.64
0.04	-0.05	1.01	-0.35	2.38	-2.04
0.03	-0.05	1.00	-1.05	0.00	-2.16
0.03	-0.05	0.00	0.25	-1.93	-0.49
0.06	-0.05	1.01	0.54	-2.74	0.13
0.06	-0.05	1.00	-0.70	-1.90	-0.28
0.05	-0.06	1.00	-0.78	-0.66	-0.69
0.06	-0.06	1.00	-0.71	-0.78	0.33
0.06	-0.06	0.00	0.04	-0.12	0.80
0.06	-0.06	0.00	0.70	1.31	-0.07
0.05	-0.05	1.00	0.77	2.74	-0.87
0.04	-0.05	0.99	1.45	2.77	0.70
0.04	-0.03	0.00	1.42	2.81	-0.68
0.03	-0.06	1.01	2.77	2.58	-0.55
0.02	-0.05	1.01	2.69	0.10	0.03
0.04	-0.05	1.00	0.64	-2.69	1.67
0.05	-0.03	1.01	1.59	-1.71	1.42
0.05	-0.04	1.01	-0.86	-1.06	1.44
0.04	-0.06	1.01	-2.16	-2.31	1.79
0.06	-0.05	1.00	-4.54	-3.22	1.09
0.06	-0.06	1.00	-4.79	-2.32	0.68
0.06	-0.07	0.99	-3.28	-2.25	-0.55
0.07	-0.06	0.00	-0.16	-0.29	-0.94
0.07	-0.05	1.00	0.85	1.63	-2.48
0.04	-0.06	1.00	-0.55	2.68	-2.99
0.03	-0.05	1.01	-1.87	-0.79	-0.00
0.05	-0.06	0.99	-1.29	-4.18	1.13
0.06	-0.05	0.00	0.62	-2.89	-0.27
0.07	-0.05	1.00	0.10	-2.38	0.51
0.07	-0.05	1.00	-0.58	-2.96	1.77
0.07	-0.05	1.00	-1.22	-0.86	1.11
0.05	-0.05	0.00	-0.69	0.68	0.17
0.06	-0.04	1.00	-0.47	-0.60	2.05
0.08	-0.05	1.01	-1.85	0.64	1.55
0.05	-0.06	1.00	-3.01	3.36	-0.90
0.04	-0.06	1.00	-2.70	2.01	-0.77
0.06	-0.07	0.00	-1.45	0.69	-0.12
0.04	-0.07	1.00	-0.35	1.86	-1.56
0.04	-0.06	1.01	-1.14	1.07	-1.52
0.05	-0.06	0.00	-2.93	-1.70	0.17
0.06	-0.05	1.00	-1.84	-0.00	-0.22
0.06	-0.06	1.00	-2.02	0.51	-0.42
0.07	-0.06	0.00	-0.28	1.19	-0.00
0.08	-0.05	1.00	-0.17	5.72	-0.97
0.07	-0.06	1.01	-0.61	8.66	-1.23
0.04	-0.06	1.00	-3.27	9.39	-0.26
0.03	-0.07	0.00	-2.32	8.08	0.96
0.03	-0.08	0.99	-0.56	6.57	1.13
0.04	-0.08	0.99	1.13	7.68	-0.80
0.00	-0.05	1.01	1.33	9.69	-4.12
-0.01	-0.06	0.00	2.32	6.00	-1.29
0.01	-0.04	1.01	2.82	1.12	1.64
0.01	-0.04	1.01	-2.45	0.74	2.24
0.01	-0.06	1.00	-4.00	-1.19	3.73
0.01	-0.07	1.01	-4.47	-2.54	4.97
0.04	-0.09	0.98	-3.48	-1.87	4.18
0.04	-0.08	0.99	3.28	1.27	1.42
0.05	-0.05	1.01	3.93	4.11	1.22
0.05	-0.06	1.01	1.21	6.37	0.39
0.03	-0.06	1.01	-1.26	8.84	-0.25
0.16	-0.09	0.99	-3.62	10.86	-0.64
0.03	-0.06	1.01	0.68	27.04	-25.65
-0.12	-0.05	0.99	-3.34	8.28	1.06
-0.01	-0.05	1.00	-1.27	15.45	-1.61
-0.12	-0.03	1.00	-3.91	21.44	-6.24
-0.13	-0.04	1.02	-3.67	8.82	-3.58
-0.12	-0.04	1.01	-7.80	-8.89	4.08
-0.03	-0.08	0.99	-8.15	-13.72	5.79
-0.00	-0.07	0.98	-5.72	-11.82	3.15
0.01	-0.07	0.00	1.58	-8.20	1.92
-0.01	-0.08	1.01	2.32	-4.65	1.53
0.01	-0.08	1.02	-0.57	-3.90	2.45
-0.01	-0.08	1.02	-6.48	-0.55	-1.03
-0.03	-0.07	1.00	-11.06	-2.29	-3.08
-0.01	-0.07	0.99	-9.04	-4.78	-1.85
-0.01	-0.09	0.00	-8.64	-3.07	-3.32
-0.01	-0.11	0.98	-6.21	-5.31	-1.57
0.07	-0.10	1.01	-4.60	-0.49	-6.73
-0.01	-0.10	1.00	-7.27	7.82	-16.87
-0.06	-0.09	1.00	-5.96	2.87	-12.30
-0.02	-0.08	1.00	-9.22	-5.04	-3.65
0.07	-0.14	0.99	-7.15	0.14	-11.28
0.03	-0.14	0.00	-5.33	7.55	-18.62
-0.02	-0.12	1.00	-4.09	11.14	-18.12
0.02	-0.13	0.00	-3.93	9.71	-11.36
-0.04	-0.08	1.02	-9.56	14.86	-18.70
0.01	-0.14	0.98	-12.34	10.90	-13.04
-0.07	-0.15	0.97	-3.91	9.21	-12.46
-0.05	-0.16	0.99	0.67	5.21	-8.50
-0.07	-0.16	0.97	7.19	1.48	-5.08
-0.07	-0.14	1.01	11.10	-10.58	11.58
0.07	-0.13	0.98	11.72	-24.50	4.77
0.04	-0.14	0.96	22.12	-13.51	-11.65
-0.01	-0.06	0.99	28.29	2.15	-24.72
-0.05	-0.01	1.05	20.45	12.69	-15.87
-0.04	-0.15	0.99	14.69	3.27	4.02
0.02	-0.15	0.92	30.92	-24.18	12.73
0.07	-0.03	1.01	35.54	-14.81	-9.63
-0.03	0.04	1.02	32.12	-3.03	-10.06
-0.00	-0.07	0.99	25.52	2.69	2.09
0.04	-0.02	0.98	29.85	6.12	-0.97
-0.07	0.05	1.03	26.25	10.51	-11.04
-0.12	0.01	0.98	23.91	-14.12	7.76
0.07	0.03	1.01	28.96	-24.98	13.56
0.11	0.11	1.02	20.93	2.35	-8.07
0.01	0.04	1.03	9.77	10.75	-8.44
-0.00	0.04	0.99	9.14	6.53	-2.32
0.03	0.05	0.96	14.54	10.80	-7.88
-0.02	0.07	0.99	19.54	11.45	-9.34
0.05	0.23	1.09	20.70	7.33	-0.93
-0.08	0.06	1.00	0.12	10.86	-3.25
-0.03	0.09	0.99	0.79	6.62	-1.95
-0.04	0.11	0.00	1.19	6.94	-3.29
-0.04	0.09	0.99	0.55	3.60	0.68
-0.00	0.09	0.00	0.48	3.63	0.71
-0.01	0.09	0.99	0.95	5.26	-0.63
-0.05	0.12	0.00	1.34	5.49	-1.51
-0.03	0.11	0.99	2.70	5.18	-8.50
-0.14	-0.22	0.67	16.00	7.50	-19.82
0.15	0.85	1.53	21.18	-4.87	-13.19
-0.04	0.10	0.96	-0.31	-6.33	1.48
-0.00	0.08	0.99	-0.44	-6.16	-0.13
-0.01	0.15	0.99	0.03	-2.96	-3.72
-0.03	0.13	0.00	-0.07	4.94	3.87
0.00	0.12	0.99	-0.60	2.26	0.86
-0.04	0.12	0.00	-0.31	4.74	-0.51
-0.06	0.11	0.99	-0.39	4.09	-1.10
-0.03	0.12	0.99	-0.47	1.52	-1.13
-0.07	0.13	0.00	-0.28	-0.56	-1.80
-0.05	0.13	0.99	-0.20	-2.55	-2.11
-0.03	0.12	0.99	-0.18	-2.87	-4.40
-0.04	0.12	0.98	-0.41	-2.86	-3.68
-0.02	0.14	0.99	-0.52	-4.52	-4.81
-0.01	0.11	0.00	-0.30	-2.48	-0.77
-0.00	0.12	0.99	-0.41	0.06	-0.09
-0.02	0.12	0.99	-0.29	2.18	-0.34
-0.03	0.12	0.99	-0.20	3.52	0.65
-0.04	0.12	0.99	-0.20	2.95	-0.64
-0.04	0.12	0.99	-0.34	2.64	0.06
-0.02	0.12	0.99	-0.17	3.39	0.60
-0.01	0.13	0.99	0.00	7.30	2.20
-0.04	0.12	0.99	0.09	10.12	1.74
-0.07	0.11	0.99	0.13	9.05	-0.55
-0.07	0.11	0.99	-0.00	5.89	-1.89
0.04	0.13	0.98	1.00	18.08	-4.10
-0.00	0.15	0.99	2.95	30.40	-10.98
-0.02	0.11	0.97	5.09	42.75	-10.67
-0.09	0.08	0.97	7.59	52.53	-20.60
-0.43	0.10	0.95	-1.18	19.29	-18.41
-0.35	0.09	0.95	2.32	-18.34	1.26
0.01	0.10	0.94	-2.08	-8.79	-2.89
-0.07	0.15	1.01	2.12	7.56	-12.40
-0.15	0.10	0.98	0.68	-2.84	-4.33
-0.08	0.12	0.99	-0.48	0.91	0.32
-0.18	0.13	0.98	-0.37	1.69	-1.07
-0.09	0.14	0.98	-0.62	0.59	0.93
-0.16	0.11	0.98	-1.55	0.40	3.86
-0.17	0.15	0.97	-1.42	2.06	3.51
-0.15	0.13	0.98	-0.26	-1.94	0.54
-0.11	0.13	0.98	-0.53	0.29	0.11
-0.16	0.13	0.98	-0.43	0.62	-0.39
-0.13	0.13	0.98	-0.40	-0.10	0.35
-0.15	0.12	0.98	-0.42	0.15	0.38
-0.13	0.13	0.98	-0.36	-0.03	0.31
-0.14	0.13	0.98	-0.35	-0.10	-0.14
-0.13	0.13	0.98	-0.37	-0.04	0.03
-0.14	0.13	0.98	-0.42	-0.18	0.20
-0.14	0.13	0.98	-0.46	-0.06	0.22
-0.15	0.13	0.98	-0.46	0.31	0.13
-0.14	0.13	0.98	-0.45	-0.07	0.48
-0.15	0.13	0.98	-0.45	0.17	0.15
-0.13	0.13	0.98	-0.34	-0.06	0.23
-0.15	0.13	0.98	-0.48	0.09	0.01
-0.13	0.13	0.98	-0.35	0.19	-0.23
-0.13	0.13	0.98	-0.35	-0.03	0.00
-0.14	0.13	0.98	-0.48	-0.42	0.40
-0.13	0.13	0.98	-0.37	0.03	-0.00
-0.15	0.13	0.98	-0.36	0.08	0.02
-0.13	0.13	0.98	-0.48	1.19	-0.47
-0.09	0.11	0.99	-1.26	0.93	3.14
-0.11	0.12	0.99	-3.67	1.90	18.90
-0.22	0.12	0.97	-3.66	3.83	15.57
-0.18	0.15	0.98	-1.31	-0.58	3.77
-0.12	0.13	0.98	-0.39	-0.83	0.55
-0.14	0.13	0.98	-0.39	0.52	-0.15
-0.14	0.13	0.98	-0.54	-0.08	0.53
-0.13	0.13	0.98	-0.38	0.09	0.08
-0.14	0.13	0.98	-0.39	0.93	-0.60
-0.14	0.13	0.98	-0.35	0.34	-0.15
-0.13	0.13	0.98	-0.40	0.17	-0.03
-0.14	0.12	0.98	-0.35	1.35	-1.19
-0.17	0.12	0.97	-0.03	-0.99	-0.86
-0.11	0.14	0.98	-1.55	-1.77	5.54
-0.14	0.13	0.98	-0.59	-1.06	1.60
-0.21	0.12	0.98	-1.11	-3.11	1.26
-0.20	0.14	0.99	-1.36	-10.22	1.26
-0.10	0.13	0.98	-3.13	-15.82	7.02
-0.11	0.12	0.98	-2.97	-13.61	10.67
-0.08	0.10	0.99	-1.00	-7.11	5.74
-0.08	0.13	0.99	-2.06	-5.11	3.83
-0.12	0.14	0.98	-1.96	-3.59	5.22
-0.15	0.14	0.99	-1.98	-9.30	8.21
-0.09	0.12	0.98	-2.80	-17.59	10.48
-0.10	0.10	0.99	-2.41	-12.68	9.33
-0.07	0.12	0.99	-1.70	-11.52	2.77
-0.06	0.13	0.99	-1.39	-9.42	3.84
-0.07	0.11	0.99	-1.26	-10.07	3.33
-0.04	0.17	1.02	-4.18	-10.52	6.38
-0.05	0.14	1.01	-9.95	-12.52	7.55
-0.04	0.12	1.01	-14.29	-9.44	3.04
-0.05	0.16	1.01	-17.90	-8.19	2.54
-0.02	0.10	1.00	-20.22	-9.80	4.54
-0.03	0.08	1.00	-25.84	-5.35	1.37
-0.03	0.09	0.99	-26.45	-5.66	0.33
-0.04	0.06	1.00	-26.57	-7.42	0.25
-0.02	0.00	0.98	-24.25	-6.32	-0.24
-0.00	0.04	0.00	-20.23	-6.98	0.98
0.03	0.02	0.99	-15.28	-6.12	1.51
-0.04	0.02	1.03	-15.45	-3.30	2.93
0.02	-0.04	0.96	-15.22	-4.12	0.64
-0.01	-0.02	0.99	-4.77	-0.07	-0.70
-0.06	0.01	1.03	-8.06	-2.15	1.06
0.04	-0.05	0.99	-11.13	-3.87	0.48
0.05	-0.04	0.97	-1.50	5.73	-4.35
-0.08	0.06	1.04	-2.57	3.67	-2.40
-0.01	0.04	1.02	-8.49	-5.47	1.52
0.00	-0.00	0.99	-9.92	-6.05	1.90
-0.04	0.01	1.03	-11.38	-4.59	-1.07
0.02	0.04	0.99	-16.46	-3.86	-6.41
0.01	-0.02	0.00	-12.68	-6.38	1.08
-0.00	-0.07	1.01	-13.86	-4.39	-1.67
-0.02	-0.05	1.01	-17.96	-1.73	-7.53
0.03	-0.05	0.97	-17.15	-5.17	-4.00
0.04	-0.08	0.98	-7.50	-3.51	-0.50
-0.02	-0.02	1.04	-8.94	-3.96	0.01
0.03	-0.08	0.99	-16.53	-4.37	-3.37
0.04	-0.12	0.97	-11.23	-1.34	-2.77
0.05	-0.13	0.98	-3.44	0.27	0.98
0.02	-0.13	0.99	2.01	2.42	0.96
-0.00	-0.11	0.99	3.51	2.47	-0.19
0.01	-0.03	1.01	7.26	-0.46	0.14
0.01	-0.06	0.99	3.58	-3.95	3.35
0.02	-0.06	1.01	3.28	-4.08	4.65
0.02	-0.05	1.01	0.74	-1.32	1.26
0.02	-0.05	1.01	-1.99	-0.35	1.24
0.04	-0.08	0.00	-3.42	0.39	0.88
0.03	-0.11	0.98	-1.93	3.05	-1.40
0.02	-0.09	0.99	1.87	5.60	-3.22
0.01	-0.07	0.99	5.76	2.13	1.63
0.01	-0.05	1.01	5.86	0.29	2.36
0.03	-0.07	1.01	4.86	0.22	2.86
0.02	-0.01	1.01	1.17	0.13	3.96
0.04	-0.05	0.00	-0.82	1.48	4.19
0.01	-0.06	0.00	1.70	3.47	4.12
-0.02	-0.03	1.01	0.89	2.93	3.22
-0.02	-0.07	1.01	-4.16	-0.41	2.91
0.01	-0.10	0.98	-2.57	-3.07	2.48
0.02	-0.10	0.96	8.11	1.29	5.80
0.02	-0.07	0.98	15.67	2.19	10.61
-0.01	-0.01	1.04	13.74	0.49	6.92
0.03	-0.00	1.02	7.55	0.61	5.25
0.02	-0.03	1.01	4.04	1.42	5.84
0.07	-0.03	0.99	4.22	7.74	12.21
0.06	-0.05	0.97	11.62	13.39	14.91
-0.04	-0.08	0.00	18.32	18.26	16.48
-0.09	-0.02	1.04	14.16	6.56	11.10
-0.01	0.00	0.99	9.79	-4.00	5.94
0.04	-0.05	0.95	16.24	2.14	9.46
-0.01	-0.03	0.99	26.93	12.38	11.26
-0.06	0.03	0.98	-2.68	2.40	3.16
-0.02	-0.00	1.01	-0.75	6.66	-1.69
-0.02	-0.00	0.98	0.03	6.09	-1.08
-0.02	0.01	0.00	-0.13	4.28	-0.05
-0.00	0.01	0.99	-0.18	7.90	-0.72
-0.00	-0.03	0.98	0.18	12.63	-3.61
-0.05	-0.07	0.95	7.85	19.50	-5.45
-0.14	0.14	1.08	20.27	13.98	1.61
-0.06	0.11	1.00	2.60	-3.49	1.41
-0.06	0.07	0.00	-0.08	-4.10	2.99
-0.02	0.06	0.99	-0.65	-1.04	2.58
-0.04	-0.02	1.00	-0.26	4.60	-0.48
-0.05	0.00	1.01	-0.07	9.53	-7.60
-0.02	0.03	0.97	2.32	15.37	-10.89
-0.13	0.04	0.98	6.86	14.11	-7.86
0.02	-0.25	0.74	22.18	9.63	-3.72
0.03	-0.03	0.85	89.38	28.49	16.77
-0.09	0.30	0.94	99.36	47.62	28.79
-0.64	-0.00	0.96	-2.64	3.34	19.60
0.02	0.17	0.00	3.19	9.56	-15.24
-0.02	0.11	0.99	2.61	-3.96	-16.31
-0.12	0.15	0.98	0.90	3.66	-14.39
-0.11	0.09	0.99	-0.29	-0.04	0.03
-0.12	0.09	0.98	-2.22	-0.10	6.24
-0.04	0.13	0.99	-1.73	-12.14	19.15
-0.22	0.09	0.99	-3.68	1.35	20.31
-0.15	0.17	0.98	-3.24	3.19	17.15
-0.15	0.18	0.97	-1.57	1.06	5.86
-0.18	0.10	0.98	-0.73	-1.71	-0.72
-0.10	0.15	0.98	-0.52	-6.50	-2.51
-0.10	0.20	0.97	1.31	-3.78	-6.76
-0.16	0.13	0.99	0.00	-5.10	-5.42
-0.01	0.06	0.97	-0.24	0.76	3.07
-0.27	0.23	1.04	-1.63	29.78	0.35
-0.22	0.17	0.97	2.90	-11.68	-5.32
-0.14	0.06	0.00	-0.83	5.22	2.15
-0.19	0.12	0.97	-1.53	1.39	5.34
-0.16	0.12	0.98	-1.51	-2.28	8.82
-0.02	0.15	0.99	-0.65	-0.55	-1.31
-0.21	0.11	0.97	-0.31	1.34	-1.90
-0.12	0.13	0.98	-0.27	-0.48	0.06
-0.16	0.13	0.98	0.09	0.01	-2.89
-0.15	0.13	0.98	0.42	-0.45	-4.07
-0.13	0.14	0.98	0.07	0.65	-3.03
-0.14	0.11	0.98	-0.23	1.84	-3.48
-0.07	0.09	0.99	-1.03	0.49	0.07
-0.14	0.14	0.99	-2.07	4.24	-0.01
-0.22	0.10	0.98	-1.67	5.40	1.37
-0.22	0.11	0.97	0.52	-5.64	-0.65
0.02	0.18	0.98	0.89	-5.99	0.22
-0.13	0.14	0.98	0.61	-2.50	-2.57
-0.13	0.09	0.99	-0.10	1.48	-3.77
-0.14	0.14	0.98	-0.50	0.97	-0.12
-0.11	0.13	0.98	-0.50	2.68	-1.55
-0.12	0.15	0.98	0.02	-0.93	-0.79
-0.12	0.12	0.98	-0.76	1.38	-0.07
-0.12	0.15	0.98	-0.68	4.60	-2.41
-0.20	0.13	0.96	-0.52	6.36	-3.22
-0.27	0.10	0.98	1.19	-11.62	-0.80
-0.11	0.12	0.98	-2.80	5.70	6.19
-0.21	0.24	1.05	-4.99	8.66	0.77
-0.30	0.16	0.99	-18.70	-15.35	-14.42
-0.10	0.03	0.96	-17.42	-25.19	-1.61
-0.08	0.11	1.02	-16.96	-22.59	1.56
-0.11	0.18	1.04	-30.35	-14.19	-1.35
-0.11	0.11	1.03	-44.67	-9.95	-5.18
-0.11	0.09	1.04	-55.28	-8.84	-5.31
-0.09	0.05	1.02	-70.03	-6.64	-0.93
-0.08	-0.06	0.97	-77.70	-4.83	-3.34
-0.05	-0.19	0.85	-51.26	0.05	-2.15
0.00	-0.23	0.87	-8.98	-3.54	8.98
-0.09	-0.12	0.95	20.71	1.87	14.78
-0.22	-0.07	1.01	23.30	-13.72	17.41
-0.08	-0.04	1.03	15.15	-18.81	14.80
0.00	0.01	1.06	6.41	-17.68	9.25
-0.01	0.03	1.06	-11.19	-7.57	5.34
-0.07	0.04	1.03	-24.37	-1.69	16.93
-0.03	-0.06	0.00	-28.49	-3.73	19.86
-0.02	-0.13	0.96	-21.73	0.39	11.65
-0.10	-0.06	0.00	-15.24	0.80	15.99
-0.02	-0.14	0.97	-12.96	-5.76	14.00
-0.07	-0.18	0.97	-3.54	3.24	7.82
-0.05	-0.04	1.01	-0.25	-0.05	-0.43
-0.03	-0.09	0.99	0.21	-3.65	5.05
-0.06	-0.10	1.00	1.19	0.42	1.13
-0.13	-0.13	1.01	-3.76	-0.14	0.04
-0.08	-0.16	0.98	-2.47	-3.21	-7.80
-0.07	-0.05	1.01	-1.96	-6.44	-8.19
0.03	0.02	1.01	-3.57	-11.56	-1.74
0.03	-0.15	0.97	-2.32	-1.47	-3.54
-0.04	-0.10	0.00	1.35	4.74	-3.90
-0.08	-0.07	1.01	-1.83	-0.62	-3.11
-0.02	-0.06	1.01	-6.57	-6.66	-3.96
0.04	-0.16	0.97	-6.02	-0.16	1.46
-0.06	-0.11	0.00	-1.89	5.22	0.29
-0.06	-0.06	1.00	-2.63	0.25	-1.76
0.04	-0.10	0.99	-3.47	-1.26	4.73
-0.08	-0.18	0.98	-0.99	7.75	2.22
-0.08	-0.12	0.99	2.78	4.99	-3.22
-0.07	-0.09	0.00	4.09	0.82	-1.25
-0.02	-0.12	0.99	6.18	-1.72	2.47
-0.05	-0.12	1.00	6.90	4.53	0.45
-0.05	-0.08	1.01	3.25	3.21	1.74
-0.04	-0.08	1.00	2.35	2.96	2.64
-0.05	-0.06	1.01	-1.30	1.61	0.13
-0.03	-0.14	0.98	-2.44	3.25	0.49
-0.07	-0.10	1.01	0.11	4.99	-1.87
-0.07	-0.09	0.00	-8.70	2.54	3.06
-0.02	-0.13	0.96	-4.27	2.05	-0.99
-0.08	-0.11	1.00	3.57	3.28	0.23
-0.08	-0.11	0.00	-0.00	-1.22	-0.06
-0.05	-0.09	1.01	-0.67	-0.25	3.67
-0.04	-0.09	1.01	-1.87	-0.18	5.67
-0.10	-0.10	1.02	-7.77	2.18	7.13
-0.08	-0.09	1.00	-10.88	-1.58	-4.46
-0.01	-0.17	0.95	-7.46	-2.83	-2.22
-0.06	-0.11	0.99	3.00	3.20	-2.29
-0.09	-0.09	1.01	1.03	0.55	-2.95
-0.07	-0.11	0.00	-0.26	-3.04	-0.55
-0.04	-0.11	0.00	-2.93	-2.08	0.37
-0.06	-0.08	1.02	-7.61	-0.39	0.45
-0.05	-0.12	0.99	-12.08	0.70	-0.74
-0.06	-0.18	0.96	-5.73	3.00	-1.19
-0.08	-0.09	1.01	-2.35	-1.50	3.66
-0.06	-0.13	1.00	-6.21	-0.13	0.12
-0.05	-0.12	0.99	-6.27	-0.26	-1.32
0.00	-0.15	0.97	-2.42	1.66	-0.12
-0.07	-0.11	1.01	2.90	2.20	-0.74
-0.05	-0.11	1.00	-1.83	0.58	-1.49
-0.07	-0.14	0.99	-2.72	2.61	-1.01
-0.05	-0.13	0.99	-1.91	1.49	-1.26
-0.12	-0.13	1.02	-1.39	3.94	-14.15
-0.03	-0.17	0.98	-6.87	-0.70	0.87
-0.08	-0.20	0.96	-0.93	2.22	0.78
-0.08	-0.17	0.97	8.89	-2.65	-0.45
-0.06	-0.16	0.99	15.64	-4.80	1.67
-0.05	-0.12	0.00	12.02	-5.05	2.60
-0.06	-0.15	0.98	12.83	-2.86	3.14
-0.07	-0.05	1.04	12.49	-8.75	7.74
0.02	-0.13	0.98	6.68	-6.79	9.58
0.00	-0.07	1.01	7.27	-0.88	7.66
-0.09	-0.08	0.99	6.66	2.07	5.87
-0.05	-0.06	1.03	6.33	2.29	-2.29
-0.07	-0.09	1.01	2.24	1.89	-2.51
-0.06	-0.07	1.01	-2.03	-0.13	0.46
-0.01	-0.04	1.01	-4.77	-2.65	-0.58
-0.07	-0.07	1.01	-9.37	0.06	-2.23
-0.08	-0.14	0.99	-9.40	-2.34	-2.22
-0.05	-0.10	0.97	-7.19	-7.92	-3.80
-0.03	-0.10	0.99	-1.03	-8.21	-2.10
0.00	-0.10	1.01	-2.57	-5.57	-0.32
-0.01	-0.13	0.98	-2.51	4.12	-1.80
-0.08	-0.16	0.95	1.87	1.09	0.32
-0.08	-0.15	0.98	15.77	-4.02	8.23
-0.02	-0.10	1.00	19.70	-8.37	2.26
0.01	-0.07	1.02	19.69	0.11	-0.51
-0.04	-0.04	1.05	6.98	3.20	2.68
-0.05	-0.07	1.01	2.43	-0.05	2.59
-0.00	-0.00	1.01	-1.45	-1.24	-5.18
-0.06	-0.08	1.01	-6.68	3.06	-2.32
-0.10	-0.12	1.02	-3.33	-4.05	8.94
-0.01	-0.08	0.99	1.96	-10.81	6.97
0.05	-0.05	0.95	-0.31	-3.08	1.01
-0.02	-0.10	0.97	-8.85	4.81	2.51
-0.05	-0.11	0.97	-3.54	3.44	-0.12
0.01	-0.16	1.02	-1.32	9.33	-8.01
-0.03	-0.08	1.01	3.92	1.58	-2.88
-0.01	-0.12	0.98	3.98	-4.89	4.97
-0.04	-0.05	1.03	10.57	2.09	-0.71
-0.06	-0.06	1.03	2.94	1.74	-1.38
-0.08	-0.08	1.03	-1.75	-1.25	3.60
0.01	-0.04	0.98	0.35	-5.76	-3.60
-0.02	-0.08	0.98	-8.40	3.86	-3.11
-0.02	-0.13	1.02	-1.54	-5.33	3.73
0.04	-0.05	0.97	4.59	-6.28	-3.37
0.05	-0.05	0.93	-6.37	8.94	-7.23
-0.06	-0.09	0.99	5.25	-5.44	3.09
-0.02	-0.06	0.99	6.58	-4.69	3.35
0.02	-0.05	0.00	8.59	-0.03	0.03
-0.07	-0.06	1.02	5.34	2.32	-0.56
-0.02	-0.03	1.02	2.09	-0.26	-0.19
-0.04	-0.08	0.99	-2.32	2.07	-3.86
-0.06	-0.05	1.01	0.46	-1.35	-1.95
0.03	-0.06	0.98	-1.76	0.13	-1.09
-0.06	-0.13	0.96	7.46	4.25	1.32
-0.04	-0.11	0.97	22.52	-1.42	3.29
-0.02	-0.00	1.03	20.08	-1.46	3.31
-0.06	-0.05	1.00	18.45	0.16	1.05
0.01	0.03	1.03	15.74	-1.56	1.15
-0.01	0.08	1.06	7.44	2.33	-1.45
-0.07	0.01	1.02	-6.13	3.40	-6.52
-0.07	-0.03	0.00	-6.87	-1.06	-3.70
-0.01	-0.02	0.00	-5.63	-3.00	-2.41
0.00	-0.07	0.97	-1.43	-1.38	-3.20
-0.06	-0.10	0.96	8.56	-5.17	-0.90
-0.02	-0.01	0.98	20.92	-6.24	-5.31
-0.11	0.06	0.97	-1.48	-3.22	-4.89
-0.10	0.01	1.05	-1.78	0.96	-4.24
-0.04	-0.06	0.98	-7.33	-10.30	5.04
-0.01	-0.02	0.99	-1.21	-11.72	3.70
0.02	-0.05	0.99	1.08	-3.73	3.08
0.03	-0.07	0.98	7.57	3.83	-1.72
-0.02	-0.06	1.01	-0.59	3.96	-5.09
-0.01	0.02	1.01	-0.34	-1.64	-3.64
0.03	0.00	0.99	0.02	-0.38	-2.54
0.04	0.02	1.01	0.26	7.79	-2.92
0.05	-0.01	1.00	0.54	12.40	-7.47
-0.10	0.01	0.00	1.28	13.26	-22.84
-0.02	-0.01	1.00	1.23	10.52	-23.63
0.00	0.00	1.00	1.88	14.58	-28.68
0.01	-0.01	0.00	2.44	29.47	-23.63
-0.12	-0.02	0.99	3.38	32.71	-22.82
-0.19	-0.00	1.01	3.01	21.09	-21.66
-0.15	-0.01	0.99	1.58	-2.49	-15.00
-0.08	-0.06	0.99	0.18	-8.77	-7.24
-0.06	-0.00	0.00	-0.67	-7.11	-1.90
-0.05	0.01	1.00	-0.33	-4.48	-0.72
-0.10	-0.02	1.00	-0.51	-4.25	-1.67
-0.07	-0.00	1.00	-0.95	-2.07	1.96
-0.04	-0.02	0.00	-0.65	-2.27	1.22
-0.09	-0.01	1.00	-0.82	1.80	2.74
-0.07	0.03	0.00	-0.64	1.53	2.32
-0.06	-0.02	0.99	-0.60	4.57	5.02
-0.11	-0.01	0.00	-0.56	0.62	1.76
-0.12	-0.00	0.00	-0.48	-4.38	-0.61
-0.10	-0.00	1.00	-0.52	-9.23	-1.19
0.03	0.04	1.01	-0.71	-10.47	2.87
-0.15	-0.06	1.02	-1.51	1.29	16.28
-0.23	-0.00	0.00	-0.31	-22.76	-18.64
-0.03	-0.00	1.00	-1.64	-24.35	5.64
0.00	-0.04	0.00	-1.88	-24.88	6.55
-0.04	-0.09	0.99	-1.30	-25.33	2.06
0.01	-0.05	0.99	-1.62	-35.40	0.72
0.13	0.01	1.01	-1.26	-27.22	1.01
0.07	-0.00	1.03	-0.82	-14.31	-4.41
0.05	-0.01	1.00	-0.93	-11.78	-4.08
0.05	-0.00	0.00	-0.77	-11.83	-7.85
0.06	-0.04	0.99	-0.55	-6.44	-5.25
0.08	0.01	1.00	-0.67	-3.43	-11.48
0.05	-0.01	0.99	-1.09	-0.90	-11.39
0.01	0.01	1.00	-0.48	-2.66	1.29
0.01	-0.01	1.01	-0.03	-3.43	5.81
0.06	0.01	0.98	-0.48	-5.85	8.56
0.42	0.01	0.98	-0.33	1.30	1.26
0.17	-0.02	0.99	0.59	31.53	-18.27
-0.01	-0.05	1.00	-0.08	21.95	-12.91
-0.11	0.05	1.02	0.31	16.19	5.93
-0.11	-0.02	1.01	0.10	1.40	6.75
-0.06	-0.01	1.01	-0.66	-10.09	0.48
-0.09	0.04	1.00	-0.74	-25.04	0.30
-0.04	0.01	1.01	-0.82	-30.09	21.06
0.19	-0.04	0.98	-0.55	-50.30	20.94
0.32	-0.12	0.98	-1.16	-23.79	-3.51
0.09	-0.01	1.00	-0.84	-4.39	-0.94
0.10	-0.02	1.00	-0.58	-0.61	2.76
0.14	-0.01	0.99	0.05	8.94	5.02
0.08	-0.01	1.00	0.23	7.85	5.01
0.04	-0.02	1.01	-0.16	7.67	3.52
0.06	0.01	1.00	-0.14	-0.35	6.16
0.05	0.01	1.00	-0.16	-2.19	1.15
0.07	-0.05	1.00	-0.91	-8.01	-5.49
0.10	-0.03	1.00	-1.35	-9.68	-4.04
0.15	0.01	0.00	-0.77	-5.45	0.09
0.17	0.02	0.99	-0.15	0.03	-0.33
0.12	-0.02	0.00	0.14	5.15	0.68
0.12	-0.03	1.00	0.13	8.87	0.59
0.10	-0.01	0.00	0.03	12.91	-0.80
0.09	0.00	1.00	0.03	11.97	0.63
0.08	-0.02	1.00	0.10	13.98	-0.03
0.03	-0.00	1.01	-0.19	11.06	-3.02
0.05	-0.02	1.01	-0.16	7.55	-2.46
0.08	-0.03	1.00	-0.12	7.11	-1.38
0.07	-0.02	1.00	-0.33	8.39	0.92
0.08	-0.00	1.00	-0.10	12.13	-1.34
0.03	-0.02	1.00	-0.13	11.63	-3.29
0.03	-0.01	1.00	-0.26	9.59	-5.66
-0.03	0.01	1.00	-0.05	7.21	-0.48
-0.02	-0.03	1.00	-0.04	1.80	-0.35
-0.04	0.01	0.00	-0.69	-5.37	3.02
0.00	-0.01	1.01	-0.58	-6.24	2.75
0.12	-0.02	0.00	-1.07	-8.65	-3.49
0.05	0.01	1.01	-0.20	-1.24	-4.00
0.05	-0.04	1.00	-0.35	-0.64	-1.03
0.02	-0.01	1.01	-0.28	3.79	2.79
-0.01	-0.02	1.01	-0.18	-1.32	0.32
0.03	0.01	1.02	-0.35	-10.70	2.77
0.03	0.02	1.01	-0.46	-0.03	-2.96
0.05	-0.02	0.00	-0.13	-7.83	-1.85
0.10	-0.03	1.00	-0.26	-5.44	0.71
0.09	0.01	1.00	-0.23	2.12	-0.18
0.04	0.00	1.00	0.10	3.38	0.81
0.03	-0.01	1.00	0.03	-0.18	1.81
0.07	-0.03	1.00	-0.21	-0.02	1.48
0.03	-0.01	1.01	-0.38	1.81	0.24
0.03	-0.02	1.01	-0.42	-1.17	1.41
0.06	-0.03	1.00	-0.48	-2.83	-0.61
0.06	-0.01	1.00	-0.75	-1.30	-0.38
0.06	-0.01	1.00	-0.60	-0.77	0.20
0.05	-0.01	1.00	-0.54	0.06	-1.83
0.05	-0.02	1.01	-1.00	-3.09	-3.20
0.09	-0.03	0.00	-0.85	1.67	-1.13
0.05	-0.02	1.01	-0.59	6.24	2.16
0.09	-0.04	0.00	-0.70	7.31	-0.39
0.05	-0.01	1.00	-0.49	12.42	-3.59
0.05	0.03	0.00	-0.55	6.43	1.10
0.08	0.02	0.00	0.04	16.29	-0.64
0.09	-0.02	1.00	0.39	19.73	3.24
-0.01	0.01	1.01	0.48	27.11	2.29
-0.06	-0.03	1.01	0.39	24.39	1.31
-0.03	-0.02	0.00	0.48	17.12	-5.63
-0.11	0.00	1.00	0.21	11.75	-2.28
-0.10	-0.02	1.01	-0.22	4.06	-0.58
-0.13	-0.02	1.01	-0.77	-7.72	-2.16
-0.13	-0.01	1.00	-1.16	-21.63	-1.84
-0.13	-0.00	1.00	-1.74	-34.99	1.67
-0.05	0.00	0.99	-2.26	-48.82	5.14
0.02	-0.01	1.00	-2.45	-55.41	3.09
0.13	-0.01	0.98	-2.53	-56.58	3.70
0.24	-0.02	0.99	-1.48	-44.66	1.38
0.30	-0.02	0.98	-0.81	-28.68	4.92
0.34	-0.04	0.97	-1.03	-5.73	-2.18
0.33	-0.03	0.98	0.18	17.86	-1.47
0.28	-0.02	0.98	-0.10	41.72	-4.49
0.21	-0.02	0.98	1.66	55.89	0.58
0.10	-0.03	0.99	1.36	68.81	-7.36
-0.01	-0.03	0.00	1.95	71.31	-13.29
-0.13	0.01	0.98	2.21	67.89	-15.93
-0.22	0.00	1.01	1.32	42.34	-0.77
-0.27	-0.01	0.00	1.35	21.82	-5.48
-0.30	-0.02	1.00	-0.03	-6.92	-5.85
-0.26	0.00	0.00	-1.93	-29.90	0.82
-0.15	-0.01	0.99	-1.93	-47.92	3.13
-0.07	-0.00	0.98	-3.40	-58.90	7.62
-0.00	-0.03	0.99	-1.90	-62.12	6.76
0.17	-0.03	1.00	-3.66	-63.95	3.91
0.15	-0.01	0.99	-2.08	-50.96	1.96
0.15	-0.02	0.00	-2.02	-43.97	4.66
0.26	-0.02	0.98	-1.05	-37.85	4.04
0.27	-0.02	0.98	-0.64	-16.36	1.54
0.29	-0.02	0.98	0.41	-4.20	5.73
0.32	-0.03	0.97	-0.05	12.77	-1.74
0.24	-0.03	0.98	0.44	30.71	-2.61
0.22	-0.03	0.98	0.54	38.79	-2.12
0.13	-0.01	0.99	0.18	48.54	-6.66
0.04	-0.01	0.00	0.98	49.98	-1.59
-0.05	0.00	1.01	1.72	41.36	0.74
-0.02	-0.01	0.00	0.83	33.19	-6.66
-0.08	-0.01	1.01	0.21	22.27	-6.72
-0.09	0.01	1.00	0.26	9.01	1.06
-0.04	-0.02	1.00	-0.20	0.56	3.19
-0.05	-0.04	1.01	-0.77	-2.93	7.63
-0.07	0.01	1.01	-1.00	-14.01	3.27
-0.06	-0.01	1.01	-1.45	-22.49	8.69
0.03	-0.05	0.00	-1.02	-25.39	-4.65
0.04	0.01	1.01	-1.73	-32.12	0.64
0.08	-0.02	0.99	-1.38	-32.16	-1.50
0.12	-0.02	0.99	-1.22	-29.13	2.83
0.15	-0.02	0.00	-1.02	-26.65	3.93
0.24	-0.02	0.99	-0.64	-14.11	0.03
0.28	-0.02	0.98	-0.42	0.91	0.31
0.21	-0.02	0.99	-0.39	14.52	-2.87
0.20	-0.01	0.99	0.37	23.50	1.05
0.17	-0.01	0.99	1.06	35.85	1.29
0.11	-0.03	1.01	1.14	42.71	-2.56
0.06	-0.03	0.99	1.14	45.13	0.91
0.01	-0.03	1.00	1.29	48.31	-4.97
-0.10	-0.01	1.00	1.19	42.88	-12.71
-0.17	0.02	1.00	0.81	25.78	-10.83
-0.21	0.01	1.01	0.55	7.13	-10.51
-0.21	-0.01	0.00	-0.47	-11.48	-4.31
-0.19	-0.02	1.01	-1.30	-34.45	2.67
-0.07	0.00	1.00	-2.51	-50.98	4.88
-0.00	-0.01	0.99	-2.10	-55.17	2.90
0.05	-0.01	1.03	-2.37	-61.96	5.23
0.13	-0.03	0.98	-2.43	-60.51	2.94
0.28	-0.01	0.97	-1.32	-53.65	10.52
0.34	-0.00	0.97	-1.24	-30.29	3.37
0.39	-0.03	0.97	-0.19	-7.19	0.82
0.31	-0.04	0.97	0.33	14.84	-1.67
0.26	-0.03	0.97	0.76	37.08	-2.69
0.22	-0.02	0.99	0.63	47.14	-3.88
0.18	-0.01	0.98	1.26	57.33	-3.50
0.13	-0.02	1.01	1.61	65.83	-5.71
0.00	-0.01	0.99	1.61	67.88	-14.84
-0.12	0.02	0.00	2.77	62.04	-11.70
-0.19	-0.00	1.01	1.74	52.82	-5.05
-0.13	-0.02	0.99	0.80	31.24	-0.21
-0.20	-0.02	0.00	0.82	16.72	-3.50
-0.28	0.01	1.01	-0.32	1.60	-0.64
-0.22	0.01	0.00	-1.32	-20.99	1.35
-0.15	-0.01	0.00	-1.76	-39.06	0.78
-0.08	-0.01	0.00	-1.62	-49.18	1.31
-0.04	-0.02	0.99	-2.96	-54.82	3.18
0.04	0.01	0.99	-1.71	-56.22	3.14
0.16	-0.01	0.99	-2.35	-50.95	10.20
0.25	-0.02	0.98	-1.34	-37.13	5.73
0.25	-0.03	0.99	-0.51	-17.96	5.81
0.21	-0.05	0.99	0.09	-4.89	5.23
0.19	-0.03	0.99	-0.05	9.33	3.19
0.18	-0.00	0.99	0.10	20.34	0.29
0.11	-0.01	0.99	0.20	26.58	-3.12
0.02	-0.02	1.01	0.55	24.63	-6.41
-0.05	-0.00	1.01	-0.08	24.27	-5.69
-0.00	0.00	1.01	0.04	15.29	1.61
0.02	-0.01	1.00	-0.08	8.83	-0.19
-0.02	-0.01	1.01	-0.19	5.37	-1.53
-0.01	-0.02	1.01	-0.29	-0.42	0.32
0.04	-0.01	1.00	-0.52	-3.69	1.72
0.07	-0.02	1.00	-0.45	-2.29	0.86
0.03	-0.01	1.00	-0.48	-1.16	-2.10
-0.01	-0.01	1.01	-0.49	-3.88	-0.42
0.02	-0.01	1.00	-0.67	-8.00	1.82
0.06	-0.01	0.00	-0.55	-9.09	3.22
0.06	-0.01	1.00	-0.51	-7.74	3.16
0.07	-0.01	1.00	-0.62	-8.75	1.57
0.12	-0.02	1.00	-0.48	-7.16	1.95
0.13	-0.02	0.00	-0.47	-2.42	0.40
0.13	-0.02	0.00	-0.12	6.23	0.45
0.12	-0.02	0.00	0.25	14.51	1.63
0.14	-0.02	0.00	0.37	22.29	-0.05
0.14	-0.02	0.99	0.80	33.57	0.31
0.12	-0.03	0.99	1.26	47.01	-0.50
0.04	-0.00	0.99	1.48	58.83	-0.23
0.03	-0.02	0.99	2.49	67.11	-1.78
-0.04	0.00	0.98	2.89	74.99	-5.46
-0.13	-0.02	0.98	4.11	78.02	-10.10
-0.26	-0.02	0.96	4.65	78.34	-13.00
-0.42	0.01	0.97	2.99	56.10	-7.08
-0.38	-0.01	0.96	1.26	27.34	-4.63
-0.47	-0.01	0.96	1.77	4.38	-7.47
-0.49	0.01	0.95	1.66	-29.51	-10.57
-0.51	0.04	0.95	-2.23	-60.33	1.77
-0.33	-0.01	0.94	-4.09	-91.87	6.84
-0.25	-0.00	0.94	-5.79	-116.22	14.36
-0.05	-0.03	0.95	-4.71	-120.53	7.58
0.14	-0.02	1.00	-4.16	-124.19	10.56
0.31	-0.01	0.97	-2.03	-107.42	12.24
0.41	-0.06	0.96	-1.81	-87.46	8.27
0.43	-0.03	0.95	-0.51	-65.49	9.46
0.52	-0.04	0.94	-1.07	-38.84	1.43
0.55	-0.02	0.93	0.19	-6.02	3.39
0.55	-0.02	0.93	0.37	36.01	-2.11
0.48	-0.00	0.95	2.34	69.46	-0.08
0.33	-0.04	0.94	2.17	98.30	-2.94
0.22	-0.02	0.98	2.74	117.73	-8.88
0.14	-0.01	0.92	3.75	135.56	-13.25
-0.11	-0.02	0.94	5.19	149.49	-16.54
-0.25	-0.03	0.94	5.06	132.25	-8.75
-0.35	-0.02	0.94	6.39	112.17	-12.12
-0.49	-0.03	0.94	7.40	89.00	-17.83
-0.52	0.01	0.93	7.43	57.40	-16.35
-0.60	0.02	0.92	6.16	24.49	-15.47
-0.63	0.04	0.92	4.07	-10.88	-13.33
-0.57	0.03	0.93	-1.77	-46.07	-1.71
-0.43	-0.00	0.91	-4.96	-73.66	4.42
-0.38	0.02	0.94	-4.30	-93.40	6.11
-0.26	0.01	0.94	-5.03	-113.83	3.77
-0.12	-0.00	0.97	-6.02	-125.89	6.29
-0.03	-0.02	0.98	-5.63	-131.27	7.83
0.21	-0.03	0.92	-4.63	-128.13	11.61
0.26	-0.02	0.93	-3.20	-104.97	9.51
0.31	-0.01	0.95	0.73	-82.65	7.95
0.53	-0.02	0.95	-2.13	-71.77	4.30
0.52	-0.03	0.93	-2.31	-42.31	-0.88
0.53	-0.02	0.93	-0.49	-7.69	0.44
0.60	-0.03	0.92	0.97	27.26	0.29
0.58	-0.04	0.91	1.48	54.11	-1.45
0.42	-0.04	0.92	2.51	91.61	-3.62
0.29	-0.03	0.92	1.40	112.26	-9.24
0.19	0.01	0.95	3.51	124.96	-9.09
0.07	-0.06	0.94	3.71	142.75	-12.54
-0.18	-0.06	0.96	4.12	134.89	-11.43
-0.28	0.00	0.95	5.31	114.59	-13.71
-0.36	-0.02	0.94	5.75	103.59	-10.07
-0.51	0.01	0.96	5.44	70.61	-11.13
-0.58	0.02	0.96	6.21	35.51	-16.23
-0.56	0.01	0.92	6.84	-7.80	-22.96
-0.60	0.03	0.91	1.77	-43.35	-13.20
-0.52	0.03	0.93	-1.50	-78.66	-3.13
-0.39	-0.01	0.95	-7.34	-109.81	11.51
-0.26	-0.03	0.94	-7.14	-130.99	15.98
-0.09	-0.02	0.91	-6.22	-149.98	15.59
0.13	-0.02	0.97	-4.94	-142.14	14.37
0.25	-0.03	0.91	-1.67	-116.05	21.66
0.35	-0.03	0.94	1.96	-99.38	17.18
0.54	-0.02	0.91	-0.07	-79.06	13.10
0.57	-0.03	0.91	-0.66	-48.66	5.47
0.61	-0.02	0.90	0.33	-8.13	2.78
0.60	-0.03	0.91	1.78	30.62	2.63
0.62	-0.05	0.90	1.84	56.19	-0.19
0.51	-0.03	0.94	2.73	99.29	-2.93
0.37	-0.06	0.93	0.99	128.02	-5.62
0.24	-0.02	0.90	4.29	151.22	-3.36
0.10	-0.07	0.94	5.60	168.92	-6.08
-0.12	-0.05	0.91	8.32	180.21	-19.06
-0.40	-0.02	0.91	11.05	167.27	-24.12
-0.61	0.01	0.91	12.61	127.42	-23.67
-0.68	0.00	0.89	12.95	81.62	-25.14
-0.70	0.03	0.84	12.10	37.53	-23.66
-0.76	0.05	0.85	7.76	-0.88	-17.28
-0.77	0.04	0.86	-0.14	-44.67	-4.47
-0.64	0.03	0.91	-5.15	-87.71	4.99
-0.51	0.02	0.92	-6.52	-120.68	5.28
-0.37	-0.01	0.90	-6.76	-147.71	10.53
-0.20	-0.03	0.94	-8.27	-166.76	13.29
-0.02	-0.04	0.87	-7.70	-173.19	10.95
0.17	-0.06	0.91	-4.95	-157.48	16.94
0.31	-0.08	0.94	-1.56	-138.59	22.08
0.47	-0.04	0.93	1.95	-119.90	27.07
0.58	-0.07	0.91	0.95	-88.79	14.66
0.65	0.00	0.88	1.78	-57.23	12.68
0.73	-0.03	0.88	1.08	-15.06	4.06
0.74	-0.06	0.89	-0.13	24.62	-1.29
0.63	-0.02	0.88	1.15	68.68	-2.12
0.46	-0.02	0.89	2.97	105.37	-2.24
0.36	0.01	0.91	2.63	127.43	-5.26
0.25	-0.04	0.91	2.62	144.13	-8.66
0.10	0.01	0.92	6.47	157.84	-6.42
-0.10	-0.04	0.93	5.50	166.41	-18.80
-0.27	-0.02	0.94	6.76	145.46	-14.03
-0.34	-0.00	0.92	7.69	124.42	-13.55
-0.50	-0.01	0.92	7.53	105.76	-12.05
-0.58	0.02	0.92	9.45	74.64	-19.14
-0.60	-0.01	0.90	7.76	42.74	-15.96
-0.70	0.02	0.90	6.26	4.68	-15.58
-0.66	0.05	0.89	1.67	-35.57	-8.53
-0.64	0.03	0.90	-4.76	-67.78	4.17
-0.44	0.00	0.90	-7.76	-100.99	8.82
-0.36	0.01	0.96	-6.15	-122.91	8.19
-0.17	-0.02	0.94	-6.98	-140.36	8.05
-0.04	-0.03	0.91	-6.56	-144.41	15.06
0.20	-0.03	0.00	-4.28	-134.42	22.99
0.41	-0.05	0.96	-1.94	-106.42	20.70
0.45	-0.05	0.96	1.16	-73.38	22.21
0.50	-0.04	0.95	2.01	-41.70	15.86
0.49	-0.02	0.94	0.12	-11.84	4.47
0.40	-0.02	0.96	-0.60	21.41	-4.25
0.30	-0.03	0.97	-1.31	40.10	-6.95
0.19	-0.02	0.98	0.48	51.37	-4.41
0.13	-0.02	0.98	0.06	50.18	-4.77
0.07	0.00	0.99	1.57	47.28	-4.11
0.01	-0.00	1.00	0.49	46.04	-4.22
-0.07	0.00	1.01	1.22	36.81	-0.05
-0.08	-0.02	1.01	0.29	14.19	0.93
-0.04	-0.01	1.01	-0.39	1.13	2.76
-0.04	0.00	1.01	-0.88	-8.47	2.28
0.04	-0.03	1.00	-1.23	-19.28	3.54
0.14	-0.01	0.00	-1.01	-17.11	-2.22
0.09	0.00	1.00	-1.05	-14.10	-3.44
0.11	-0.04	1.01	-0.54	-12.44	0.71
0.15	-0.02	0.99	-0.84	-6.78	0.64
0.18	0.01	0.99	-0.63	-1.29	-1.54
0.12	-0.04	0.00	0.13	9.20	0.65
0.09	-0.02	1.00	-0.28	9.40	0.29
0.08	0.01	1.00	-0.62	9.38	-5.38
0.10	-0.04	0.00	-0.30	5.95	-0.84
0.05	-0.01	1.00	-0.01	9.53	2.13
0.04	0.00	1.00	-0.09	6.45	2.22
0.05	-0.02	1.00	-0.07	3.09	0.67
0.07	-0.02	1.00	-0.38	1.47	0.71
0.07	0.00	1.00	-0.31	0.60	0.67
0.07	-0.02	1.00	-0.29	0.60	0.58
0.07	-0.01	1.00	-0.27	1.06	0.74
0.08	-0.01	0.00	-0.39	1.42	0.59
0.07	-0.02	1.00	-0.29	1.91	0.52
0.07	-0.02	1.00	-0.33	2.62	0.88
0.07	-0.01	1.00	-0.26	3.32	0.87
0.07	-0.02	1.00	-0.20	3.84	0.77
0.07	-0.02	1.00	-0.15	4.59	0.64
0.07	-0.01	1.00	-0.15	5.17	0.44
0.07	-0.01	1.00	0.03	6.24	0.32
0.07	-0.01	0.00	-0.00	7.53	0.43
0.07	-0.01	0.00	0.13	9.59	0.26
0.07	-0.01	0.00	0.14	11.37	0.29
0.07	-0.01	1.00	0.28	14.30	0.17
0.03	-0.01	1.00	-0.06	16.96	-3.00
0.04	-0.01	0.00	0.03	17.41	-0.52
0.02	-0.01	1.00	0.13	20.55	1.20
-0.04	-0.01	1.00	0.44	19.94	1.45
-0.05	-0.01	1.00	0.32	12.65	-2.83
-0.04	-0.00	1.00	0.09	10.11	-1.64
-0.09	-0.02	1.01	-0.13	5.72	-0.42
-0.10	-0.00	1.01	-0.46	-5.72	-3.41
-0.09	-0.00	1.00	-0.80	-13.81	-1.58
-0.12	-0.02	1.01	-1.42	-24.94	-0.40
-0.08	-0.00	1.00	-1.94	-38.17	-0.68
0.04	-0.01	0.00	-2.28	-46.30	1.08
0.09	-0.01	0.99	-2.18	-41.29	1.87
0.14	-0.02	0.99	-1.07	-39.07	1.74
0.21	-0.02	0.99	-1.51	-30.69	3.06
0.19	-0.02	0.99	-0.79	-17.96	4.19
0.22	-0.03	0.99	-1.08	-9.20	-2.77
0.21	-0.00	0.99	-0.45	3.39	-0.80
0.19	-0.02	0.99	0.32	13.94	1.08
0.16	-0.02	0.99	0.98	23.13	2.64
0.14	-0.01	0.00	0.73	27.97	-1.68
0.10	-0.01	0.00	-0.11	31.65	-4.40
0.09	-0.01	0.99	1.29	33.13	0.99
0.06	-0.02	0.99	1.55	37.90	4.67
0.02	0.00	1.00	0.60	40.02	-0.80
0.03	-0.02	0.00	1.26	38.53	-0.19
-0.00	-0.01	1.00	1.32	45.44	4.54
-0.02	0.01	0.99	0.95	45.33	-2.42
0.02	-0.01	0.98	1.50	52.90	3.19
-0.01	-0.02	0.99	1.91	62.81	4.28
-0.10	-0.03	0.97	2.78	68.25	-3.73
-0.10	0.00	0.96	1.36	79.21	2.90
-0.18	0.01	0.96	1.29	87.78	3.82
-0.18	-0.02	0.93	3.93	93.59	0.38
-0.27	-0.01	0.92	4.25	103.55	1.16
-0.38	-0.00	0.90	5.05	113.69	-2.83
-0.55	-0.04	0.84	12.47	101.70	-16.24
-0.56	0.01	0.81	15.10	97.07	-21.14
-0.55	0.04	0.82	15.61	93.18	-19.69
-0.74	-0.02	0.79	-2.71	78.51	5.36
-0.77	0.06	0.74	4.05	52.25	-1.55
-0.71	-0.00	0.74	-0.84	32.02	1.71
-0.68	0.01	0.76	1.14	20.57	-0.77
-0.68	0.02	0.75	2.38	11.02	-2.54
-0.66	0.02	0.73	-0.93	7.76	1.17
-0.67	0.01	0.76	-3.63	5.58	3.84
-0.63	0.01	0.76	-1.56	1.21	1.42
-0.63	0.01	0.75	-0.12	1.03	-0.19
-0.68	0.00	0.74	0.80	-0.61	-1.29
-0.68	0.02	0.74	0.51	-6.98	-1.10
-0.71	-0.01	0.75	-0.28	-13.61	-0.69
-0.75	0.01	0.73	4.12	-32.99	-6.10
-0.79	0.02	0.73	-1.28	-48.91	-0.97
-0.83	0.01	0.74	-1.45	-78.50	-3.70
-0.69	0.04	0.76	-6.05	-109.49	0.31
-0.54	-0.02	0.83	-9.14	-121.15	5.76
-0.37	0.02	0.88	-9.36	-122.29	8.59
-0.28	0.00	0.91	-3.85	-124.72	-2.42
-0.23	0.02	0.95	-3.76	-116.90	-3.05
-0.22	-0.01	0.94	-3.64	-116.03	-0.87
-0.05	-0.02	0.98	-4.81	-113.96	2.23
0.07	-0.01	0.99	-4.55	-100.03	2.31
0.10	-0.01	0.97	-3.20	-80.49	0.01
0.15	-0.02	0.98	-2.61	-66.28	0.85
0.18	-0.01	0.99	-1.97	-46.65	2.82
0.31	-0.03	0.99	-1.42	-25.22	5.27
0.31	-0.02	0.99	0.39	10.77	6.31
0.28	-0.02	0.98	0.92	35.37	-2.48
0.21	-0.02	0.98	1.93	64.86	-0.02
0.12	-0.01	0.96	3.02	87.20	-1.86
-0.01	-0.02	0.98	3.94	103.83	-3.35
-0.12	0.00	0.97	4.92	111.82	-7.43
-0.23	0.00	0.96	5.61	114.93	-6.82
-0.35	-0.02	0.94	4.57	98.69	-3.10
-0.38	0.04	0.89	6.67	96.11	-6.98
-0.47	-0.02	0.91	3.23	87.63	-2.02
-0.49	-0.01	0.88	3.35	75.36	-1.12
-0.55	0.01	0.85	4.18	58.97	-3.03
-0.60	0.02	0.84	1.86	47.85	-2.38
-0.59	0.01	0.84	0.44	25.84	0.64
-0.61	-0.00	0.84	-0.01	19.18	0.80
-0.65	0.01	0.82	0.55	-2.18	-1.81
-0.62	0.02	0.82	-0.39	-27.08	-1.00
-0.58	0.04	0.83	-1.03	-42.53	-0.12
-0.52	0.00	0.86	-4.87	-59.67	2.82
-0.43	0.01	0.90	-3.50	-68.33	1.55
-0.35	0.01	0.89	-6.67	-67.21	6.06
-0.26	0.01	0.94	-5.39	-61.60	6.97
-0.12	-0.02	0.95	-2.77	-54.64	1.13
-0.12	-0.01	0.97	-2.08	-32.77	1.69
-0.11	-0.01	0.97	-2.06	-11.36	3.24
-0.11	-0.02	0.97	0.19	9.65	-0.10
-0.16	0.01	0.96	1.56	27.61	-3.06
-0.23	-0.01	0.95	1.48	40.36	-1.31
-0.35	-0.01	0.93	2.48	44.96	-1.05
-0.38	0.01	0.93	4.02	37.36	-7.95
-0.41	0.02	0.90	2.96	32.72	-3.73
-0.43	0.01	0.91	1.09	27.99	-0.06
-0.46	-0.00	0.91	1.12	21.18	-1.33
-0.47	0.01	0.90	0.77	12.27	-1.33
-0.47	0.00	0.90	-0.03	3.90	-0.22
-0.51	0.00	0.90	-0.61	-7.32	0.10
-0.54	0.00	0.89	-1.16	-24.11	-0.74
-0.55	0.02	0.89	-2.41	-44.44	-0.16
-0.44	0.00	0.91	-2.67	-65.82	0.78
-0.34	0.01	0.91	-5.93	-71.84	5.20
-0.24	0.01	0.95	-6.69	-70.05	9.57
-0.12	-0.03	0.97	-3.30	-65.24	3.94
-0.01	0.01	0.98	-2.57	-48.44	2.42
0.03	-0.01	0.98	-2.66	-16.60	8.62
0.07	-0.02	0.99	-1.51	11.52	7.54
0.01	-0.04	0.00	0.90	42.38	1.13
0.01	-0.02	0.97	2.50	57.59	-3.80
-0.16	-0.02	0.96	4.22	82.26	-4.04
-0.31	-0.01	0.94	7.08	89.35	-10.70
-0.42	-0.02	0.90	6.14	84.02	-10.52
-0.52	-0.01	0.88	6.62	64.05	-9.33
-0.59	0.01	0.89	6.83	50.98	-9.54
-0.62	0.02	0.86	7.02	32.08	-10.52
-0.67	0.02	0.85	4.31	8.45	-7.76
-0.67	0.02	0.84	2.40	-24.63	-6.72
-0.66	0.04	0.84	-3.26	-51.10	0.77
-0.48	0.02	0.88	-6.11	-72.07	5.76
-0.41	-0.01	0.92	-7.95	-78.07	10.46
-0.29	-0.03	0.94	-8.90	-85.61	11.14
-0.17	0.00	0.97	-6.67	-78.66	8.09
-0.08	-0.02	0.96	-5.37	-61.96	10.80
0.05	0.00	0.99	-3.88	-28.88	12.18
0.08	-0.02	0.99	-3.49	5.41	15.47
0.06	-0.05	1.01	-1.26	25.23	8.17
0.05	-0.03	0.97	2.61	51.30	-5.57
-0.18	-0.02	0.97	4.89	77.01	-7.92
-0.27	-0.00	0.94	7.66	83.40	-13.49
-0.39	-0.00	0.91	4.70	86.62	-5.86
-0.41	0.00	0.88	5.34	77.01	-4.96
-0.54	0.00	0.87	6.21	70.58	-5.86
-0.61	-0.01	0.85	6.34	57.25	-8.88
-0.64	0.01	0.84	4.45	36.25	-5.34
-0.67	-0.00	0.82	2.82	17.54	-3.98
-0.75	0.00	0.83	4.69	-17.92	-9.08
-0.72	0.03	0.82	2.65	-49.41	-8.29
-0.64	0.08	0.82	-5.29	-75.64	3.01
-0.49	0.05	0.86	-8.20	-96.37	8.83
-0.38	-0.02	0.88	-8.98	-103.54	13.53
-0.22	-0.02	0.90	-8.69	-106.87	13.58
-0.13	-0.03	0.94	-8.25	-95.20	16.96
0.10	-0.01	0.98	-6.44	-65.59	18.60
0.15	-0.03	1.01	-4.53	-35.82	15.93
0.17	-0.03	0.99	-2.86	-6.22	14.17
0.11	-0.03	0.99	0.52	26.26	0.13
0.02	-0.03	0.98	2.64	47.91	-7.12
-0.15	-0.05	0.00	4.07	55.94	-13.13
-0.25	-0.04	0.00	3.50	35.21	-12.77
-0.30	0.01	0.00	1.00	-3.38	-9.17
-0.27	0.01	0.99	-0.12	-19.75	-4.78
-0.26	-0.01	0.98	0.37	-35.52	-7.88
-0.20	0.01	0.98	0.41	-43.56	-11.59
-0.24	0.04	0.91	0.47	-27.33	1.74
-0.13	0.00	0.95	-0.47	1.06	1.25
-0.20	-0.02	0.95	0.83	22.14	-2.51
-0.40	0.04	0.98	1.80	29.93	-5.43
-0.39	0.02	0.97	-0.11	2.30	0.15
-0.35	-0.02	0.98	-1.42	-25.49	0.48
-0.42	0.01	0.97	-2.08	-53.89	-1.50
-0.33	0.01	0.98	-4.44	-86.70	5.21
-0.19	0.01	0.94	-6.95	-107.93	7.53
-0.12	-0.04	0.97	-5.64	-123.51	9.53
0.01	-0.03	0.92	-5.55	-140.80	2.95
0.10	-0.04	0.91	-5.73	-149.49	2.12
0.33	-0.01	0.87	-3.55	-146.16	8.85
0.47	-0.05	0.87	0.02	-132.80	13.42
0.57	-0.04	0.87	4.61	-114.03	16.41
0.61	-0.06	0.84	3.11	-94.19	13.72
0.69	-0.05	0.80	2.45	-74.28	9.48
0.77	-0.04	0.79	2.78	-51.46	5.60
0.83	-0.04	0.77	3.73	-22.48	7.12
0.84	-0.03	0.75	1.19	1.35	2.35
0.81	-0.00	0.77	-0.60	38.93	-1.33
0.68	-0.04	0.80	2.03	73.42	-0.49
0.61	-0.05	0.85	0.56	90.93	-4.84
0.47	-0.05	0.90	-3.94	100.29	-11.70
0.25	-0.04	0.94	-3.32	101.72	-15.20
0.13	-0.05	0.98	-5.55	78.69	-19.98
0.10	-0.02	0.99	-4.01	50.21	-15.70
-0.02	-0.02	1.01	-2.74	26.47	-10.34
-0.04	-0.02	1.01	-2.35	-22.19	-4.31
-0.00	0.00	0.99	-0.07	-55.58	7.02
0.17	-0.03	0.95	0.78	-87.58	8.87
0.27	-0.02	0.91	1.24	-101.89	11.37
0.39	-0.04	0.86	1.03	-113.34	10.23
0.51	-0.05	0.83	3.61	-112.96	13.94
0.62	-0.03	0.80	11.23	-101.62	18.97
0.86	-0.06	0.75	16.57	-80.17	26.53
0.86	-0.03	0.73	17.90	-39.67	23.64
0.94	-0.03	0.66	12.00	-5.73	16.96
0.86	0.02	0.69	7.95	34.28	8.56
0.80	-0.05	0.69	-1.42	51.82	-2.70
0.76	-0.02	0.75	2.84	74.09	-0.96
0.65	-0.05	0.80	-5.16	92.48	-12.28
0.45	-0.03	0.82	-2.81	108.72	-10.88
0.39	-0.02	0.89	-3.69	109.10	-13.49
0.33	-0.03	0.90	-4.67	105.15	-17.62
0.21	-0.06	0.93	-5.27	101.63	-22.35
0.10	-0.06	0.99	-7.18	81.47	-31.13
-0.02	-0.05	1.00	-6.01	50.69	-29.88
-0.10	-0.00	1.02	-4.15	6.28	-16.89
-0.09	-0.00	1.03	-1.21	-26.95	0.16
-0.02	0.00	0.00	-1.91	-59.01	6.06
0.08	-0.01	0.97	-1.60	-86.18	4.69
0.18	-0.02	0.92	-0.38	-109.62	8.68
0.35	-0.06	0.89	0.00	-123.40	11.86
0.51	-0.05	0.86	5.37	-116.95	20.18
0.64	-0.05	0.80	11.72	-98.79	25.49
0.84	-0.01	0.75	12.97	-69.38	22.31
0.92	-0.02	0.72	9.78	-22.66	16.09
0.91	-0.04	0.71	6.42	11.01	8.73
0.92	-0.07	0.72	1.60	38.37	0.00
0.80	-0.06	0.78	-2.99	83.46	-6.53
0.65	-0.07	0.81	-4.47	106.08	-11.32
0.42	-0.02	0.87	-0.51	127.63	-8.90
0.32	-0.05	0.87	-7.04	117.38	-25.56
0.20	-0.03	0.93	-8.32	107.18	-35.22
0.02	-0.04	0.98	-7.27	88.83	-38.78
-0.07	-0.02	1.02	-5.96	59.69	-34.20
-0.14	-0.02	1.02	-3.22	28.49	-21.96
-0.23	-0.01	1.03	-1.83	-21.50	-2.29
-0.11	-0.00	1.01	-0.97	-66.46	5.01
0.00	-0.02	0.98	0.12	-106.73	16.76
0.19	-0.03	0.92	0.94	-128.16	13.53
0.34	-0.05	0.88	4.47	-135.33	20.95
0.52	-0.06	0.86	9.89	-129.82	29.66
0.67	-0.07	0.79	14.63	-113.65	29.72
0.89	-0.03	0.74	16.54	-83.84	27.75
0.97	-0.00	0.71	12.49	-31.90	17.93
0.89	-0.03	0.67	12.84	12.91	16.44
0.92	-0.08	0.65	2.61	42.64	1.44
0.79	0.04	0.75	-4.44	85.32	-9.30
0.64	-0.02	0.80	-5.84	108.66	-11.49
0.55	-0.01	0.83	-4.14	118.34	-15.03
0.39	-0.02	0.92	-7.61	121.54	-24.67
0.16	-0.04	0.93	-7.43	110.03	-33.47
0.02	-0.06	0.98	-6.18	91.64	-34.34
-0.06	0.00	1.02	-4.40	64.47	-26.98
-0.18	-0.02	1.03	-2.16	30.64	-16.06
-0.21	-0.01	1.04	-1.61	-8.18	-4.76
-0.12	-0.02	1.03	-1.82	-56.49	5.50
-0.08	-0.01	0.97	-2.19	-95.84	10.90
0.13	-0.04	0.97	-0.42	-126.33	14.10
0.32	-0.05	0.91	2.03	-137.07	15.77
0.47	-0.04	0.82	8.11	-134.83	25.07
0.73	-0.07	0.78	15.55	-106.31	29.95
0.91	-0.02	0.72	15.55	-71.13	25.94
0.95	-0.03	0.69	9.01	-22.40	13.99
0.89	-0.03	0.66	4.22	19.37	4.89
0.92	-0.04	0.73	-0.45	54.59	-4.09
0.75	-0.05	0.79	-3.12	88.94	-8.54
0.59	-0.04	0.79	-1.17	117.83	-8.72
0.47	-0.02	0.82	-1.49	131.90	-12.67
0.37	-0.01	0.89	-3.66	135.87	-20.58
0.21	-0.05	0.93	-5.64	126.72	-29.37
0.01	-0.04	1.00	-4.97	109.19	-36.68
-0.15	-0.04	0.99	-6.40	75.83	-41.10
-0.27	-0.02	1.03	-2.77	39.97	-24.41
-0.29	-0.01	1.04	-1.00	-20.79	-3.89
-0.28	-0.02	1.00	-1.27	-66.71	3.44
-0.07	0.02	0.99	-0.57	-113.52	14.13
0.07	-0.04	0.90	1.12	-142.65	21.36
0.33	-0.04	0.91	3.48	-153.44	22.00
0.54	-0.06	0.83	9.72	-143.43	28.71
0.73	-0.04	0.75	11.35	-124.80	27.55
0.86	-0.04	0.72	13.22	-87.17	22.66
0.97	-0.04	0.70	12.98	-40.27	21.42
0.94	-0.04	0.66	9.53	3.57	12.77
1.00	-0.06	0.71	-0.57	42.88	-3.66
0.75	-0.06	0.76	-4.70	86.36	-7.65
0.66	-0.08	0.81	-4.32	114.35	-10.47
0.46	-0.02	0.88	-1.14	130.48	-10.85
0.31	-0.01	0.92	-7.24	122.49	-28.32
0.11	-0.04	0.96	-9.03	104.57	-37.59
-0.05	-0.05	0.99	-5.99	77.66	-35.79
-0.20	-0.05	1.04	-5.12	44.27	-28.21
-0.22	-0.01	1.04	-2.69	2.19	-10.95
-0.14	-0.01	1.03	-1.58	-42.52	2.77
-0.04	0.01	0.00	-2.03	-77.91	10.24
0.06	-0.00	0.95	-0.19	-110.10	14.97
0.32	-0.05	0.90	5.28	-128.78	22.44
0.50	-0.03	0.85	10.10	-126.66	27.39
0.69	-0.05	0.78	13.42	-107.92	28.26
0.82	-0.07	0.74	17.17	-72.64	28.26
0.96	-0.03	0.71	14.18	-36.01	23.23
0.99	-0.01	0.69	7.95	18.54	10.11
0.86	-0.04	0.73	1.66	69.55	0.80
0.75	-0.03	0.76	-0.40	95.41	-3.46
0.63	-0.03	0.78	1.47	124.87	-6.19
0.50	-0.04	0.90	0.13	145.06	-9.13
0.26	-0.03	0.86	2.03	153.11	-7.72
0.20	-0.01	0.91	3.58	151.53	-6.20
0.05	-0.06	0.95	1.19	147.26	-3.77
-0.04	-0.01	0.94	4.83	137.46	-1.18
-0.14	-0.03	0.94	4.49	126.18	-0.49
-0.20	-0.01	0.95	4.06	108.63	-5.46
-0.24	-0.00	0.95	3.77	95.40	-5.14
-0.33	-0.01	0.96	3.28	84.36	-3.19
-0.41	0.03	0.95	2.04	67.91	1.50
-0.30	0.00	0.95	0.61	49.56	3.48
-0.29	0.01	0.95	0.72	47.25	3.16
-0.35	-0.00	0.95	0.84	43.77	2.03
-0.37	-0.02	0.94	1.19	36.98	0.16
-0.47	-0.04	0.93	3.44	22.64	-7.37
-0.58	-0.01	0.88	1.90	7.75	-6.04
-0.59	0.02	0.91	3.92	-18.64	-12.02
-0.61	0.05	0.92	-1.42	-59.78	-3.02
-0.47	-0.00	0.90	-5.84	-93.41	2.60
-0.40	0.00	0.98	-6.56	-120.41	2.78
-0.26	0.03	0.94	-6.11	-136.88	3.78
-0.12	-0.05	0.94	-6.98	-147.23	7.44
0.03	-0.01	0.93	-5.31	-154.21	3.06
0.22	-0.02	0.89	-4.52	-146.84	-1.28
0.32	0.03	0.92	-3.53	-139.46	5.92
0.41	-0.03	0.89	-2.83	-119.64	4.90
0.52	-0.03	0.88	1.26	-96.59	10.23
0.62	-0.04	0.87	3.78	-68.08	13.44
0.72	-0.02	0.86	4.33	-38.94	13.81
0.75	-0.02	0.83	5.08	3.99	10.96
0.71	-0.03	0.83	3.20	43.42	3.15
0.67	-0.04	0.86	0.25	68.45	-3.57
0.52	0.00	0.88	-0.95	95.78	-8.32
0.42	-0.03	0.90	1.09	120.86	-7.12
0.32	-0.02	0.95	2.96	133.04	-7.31
0.20	-0.07	0.93	0.69	143.76	-10.90
0.01	-0.03	0.91	4.59	147.84	-13.07
-0.10	-0.03	0.94	5.54	137.67	-18.89
-0.23	-0.01	0.96	6.73	125.70	-20.07
-0.41	-0.02	0.95	7.94	97.17	-22.12
-0.57	0.02	0.93	3.64	79.41	-6.84
-0.55	0.00	0.94	3.41	40.93	-7.40
-0.56	0.01	0.94	2.73	16.41	-7.73
-0.57	0.02	0.93	0.01	-24.00	-3.80
-0.48	0.01	0.93	-3.68	-62.66	3.98
-0.35	0.00	0.93	-6.05	-88.46	4.32
-0.28	-0.01	0.94	-4.44	-107.64	1.43
-0.17	-0.02	0.93	-6.01	-122.90	1.88
-0.02	-0.04	0.97	-5.24	-130.83	6.47
0.11	-0.03	0.95	-4.39	-132.20	6.88
0.15	-0.01	0.93	-3.08	-129.87	5.28
0.34	-0.03	0.91	-3.48	-121.98	13.13
0.47	-0.01	0.91	0.07	-100.90	14.73
0.56	-0.02	0.89	4.18	-68.16	16.93
0.70	-0.02	0.89	5.64	-39.90	19.32
0.67	-0.03	0.87	4.83	0.48	12.55
0.68	-0.04	0.87	2.61	35.98	4.31
0.59	-0.05	0.88	-0.75	71.56	-5.25
0.42	-0.00	0.91	0.85	95.43	-7.55
0.32	-0.02	0.91	2.48	112.04	-7.82
0.20	-0.00	0.93	1.31	120.99	-6.12
0.13	-0.05	0.95	4.54	124.48	-3.24
-0.06	-0.04	1.00	3.86	122.54	-13.71
-0.14	0.00	0.99	4.43	106.62	-13.87
-0.21	-0.01	0.96	4.43	93.98	-9.46
-0.32	-0.01	0.96	4.11	75.55	-9.33
-0.41	-0.01	0.97	3.01	54.75	-8.63
-0.43	0.01	0.97	3.48	28.74	-12.08
-0.52	0.02	0.95	-0.35	4.18	0.56
-0.37	0.02	0.97	-1.61	-33.66	-0.87
-0.33	-0.00	0.98	-2.59	-54.52	1.58
-0.20	-0.01	0.96	-4.49	-68.86	6.39
-0.11	0.00	0.98	-4.52	-73.96	10.63
0.01	-0.02	0.98	-3.09	-74.00	6.82
0.11	-0.00	0.98	-3.83	-66.78	7.13
0.12	-0.01	0.99	-1.68	-48.26	7.77
0.16	-0.02	0.99	-1.58	-34.03	11.01
0.18	-0.04	0.00	-1.03	-18.84	7.41
0.17	-0.04	0.99	-0.74	-5.47	0.36
0.11	-0.02	0.00	-0.49	5.15	-2.06
0.06	-0.01	1.00	-0.14	8.26	-0.10
0.03	-0.01	1.00	-0.03	9.21	-0.46
0.01	-0.01	1.00	-0.12	7.09	-0.86
0.01	-0.01	1.00	-0.32	3.02	-0.08
0.02	-0.01	1.00	-0.41	-0.91	0.40
0.04	-0.01	1.00	-0.50	-2.44	0.54
0.04	-0.02	1.01	-0.58	-2.54	0.12
0.04	-0.02	1.00	-0.48	-3.02	0.13
0.05	-0.01	1.00	-0.51	-3.11	0.40
0.07	-0.01	1.00	-0.47	-1.82	0.47
0.06	-0.02	1.00	-0.40	0.22	-0.06
0.05	-0.02	1.00	-0.34	1.18	-0.32
0.05	-0.01	1.00	-0.41	1.35	-0.03
0.06	-0.01	1.00	-0.41	1.09	0.19
0.06	-0.02	1.00	-0.21	2.18	-0.07
0.04	-0.02	1.01	-0.24	3.83	-0.77
0.02	-0.01	1.00	-0.36	2.45	-0.29
0.03	-0.01	1.00	-0.39	0.27	0.55
0.05	-0.01	1.00	-0.41	-0.22	0.27
0.04	-0.02	1.00	-0.42	-0.16	-0.23
0.04	-0.01	1.00	-0.50	-0.44	0.01
0.05	-0.01	1.00	-0.42	-0.95	0.55
0.06	-0.01	1.00	-0.38	0.09	0.27
0.04	-0.02	1.00	-0.39	1.71	-0.46
0.03	-0.01	1.00	-0.41	0.55	-0.36
0.04	-0.01	1.00	-0.42	-0.74	0.45
0.05	-0.01	1.01	-0.36	-0.80	0.30
0.05	-0.02	1.00	-0.37	0.16	-0.01
0.05	-0.02	1.00	-0.37	0.67	0.06
0.05	-0.01	1.00	-0.39	1.04	0.04
0.05	-0.01	1.00	-0.39	1.39	0.16
0.05	-0.01	1.00	-0.32	1.52	-0.23
0.03	-0.01	1.00	-0.29	1.14	-0.07
0.03	-0.01	1.00	-0.35	0.33	0.51
0.05	-0.01	1.01	-0.36	-0.23	0.22
0.05	-0.01	1.00	-0.36	0.92	0.20
0.05	-0.02	1.00	-0.26	1.97	-0.15
0.04	-0.02	1.00	-0.27	2.57	-0.53
0.03	-0.01	1.00	-0.41	2.06	0.13
0.04	-0.01	1.00	-0.25	1.74	0.23
0.04	-0.02	1.00	-0.34	2.19	-0.32
0.02	-0.01	1.01	-0.37	1.61	-0.45
0.03	-0.01	1.01	-0.47	0.06	0.31
0.04	-0.01	1.00	-0.52	-0.37	0.61
0.05	-0.01	1.00	-0.31	0.40	0.00
0.03	-0.01	1.00	-0.29	0.91	-0.29
0.03	-0.02	1.00	-0.33	0.36	0.21
0.04	-0.01	1.00	-0.49	-0.10	0.19
0.03	-0.01	1.00	-0.41	0.03	-0.04
0.03	-0.01	1.00	-0.34	-0.31	0.29
0.03	-0.01	1.01	-0.41	-0.96	-0.06
0.03	-0.01	1.01	-0.44	-1.47	0.33
0.04	-0.01	1.00	-0.48	-2.09	0.56
0.04	-0.01	1.00	-0.48	-1.35	0.16
0.04	-0.01	1.00	-0.42	-0.32	0.17
0.04	-0.01	1.00	-0.36	0.16	-0.13
0.03	-0.01	1.00	-0.35	0.12	0.06
0.04	-0.01	1.00	-0.43	-0.67	0.49
0.05	-0.02	1.01	-0.37	0.11	0.44
0.04	-0.01	1.00	-0.24	1.45	-0.48
0.03	-0.01	1.00	-0.35	1.28	-0.18
0.03	-0.01	1.01	-0.34	0.37	0.48
0.04	-0.01	1.00	-0.38	0.28	0.11
0.03	-0.01	1.00	-0.32	0.04	-0.05
0.03	-0.01	1.00	-0.48	-0.30	0.32
0.04	-0.02	1.00	-0.43	-0.32	0.14
0.04	-0.01	1.00	-0.39	0.04	0.32
0.04	-0.01	1.00	-0.45	0.01	0.23
0.03	-0.01	1.00	-0.42	0.19	-0.24
0.03	-0.01	1.00	-0.32	-0.16	0.17
0.04	-0.02	1.00	-0.36	-0.17	0.46
0.03	-0.02	1.00	-0.48	-0.10	-0.08
0.03	-0.01	1.00	-0.36	-0.23	0.01
0.03	-0.01	1.00	-0.49	-0.85	0.06
0.04	-0.01	1.00	-0.38	-1.15	0.57
0.05	-0.02	1.00	-0.36	0.09	0.29
0.05	-0.01	1.00	-0.34	1.29	-0.11
0.05	-0.01	1.01	-0.26	2.86	-0.08
0.04	-0.01	1.00	-0.26	4.54	-0.36
0.03	-0.02	1.00	-0.23	4.48	-0.66
0.01	-0.01	1.00	-0.42	3.22	-0.36
0.00	-0.01	1.00	-0.45	0.17	-0.64
0.01	-0.01	1.01	-0.49	-2.74	0.39
0.04	-0.01	1.00	-0.47	-3.57	1.50
0.05	-0.02	1.00	-0.55	-2.94	0.08
0.04	-0.01	1.00	-0.51	-1.51	0.18
0.04	-0.01	1.00	-0.42	-1.16	0.36
0.05	-0.01	1.01	-0.38	0.28	-0.03
0.03	-0.01	1.00	-0.36	1.56	-0.30
0.02	-0.01	1.00	-0.42	0.87	-0.52
0.02	-0.01	1.00	-0.48	-1.22	0.32
0.04	-0.01	1.00	-0.41	-1.71	1.09
0.06	-0.01	1.01	-0.31	0.42	0.24
0.07	-0.02	1.00	-0.13	3.93	0.08
0.07	-0.02	1.00	-0.10	7.22	0.02
0.04	-0.02	1.00	-0.06	11.05	-1.28
0.01	-0.01	1.01	-0.04	11.13	-2.48
-0.01	-0.01	1.00	-0.23	7.79	-3.83
-0.07	-0.01	1.00	-0.24	3.15	-1.42
-0.06	-0.01	1.01	-0.64	-5.97	0.84
-0.02	-0.01	1.01	-0.80	-13.12	1.10
0.01	0.00	1.01	-0.86	-16.28	3.50
0.07	-0.01	0.00	-0.90	-14.68	6.28
0.16	-0.02	0.00	-0.78	-10.88	1.26
0.13	-0.03	1.00	-0.22	2.41	-0.36
0.10	-0.02	0.00	0.16	12.13	-1.09
0.04	-0.02	1.00	0.19	17.78	-2.19
-0.02	-0.01	1.01	-0.10	14.55	-3.98
-0.05	-0.00	1.00	-0.35	6.77	-5.43
-0.07	0.00	1.00	-0.35	0.63	0.78
0.02	-0.01	0.00	-0.40	-4.91	2.53
0.04	-0.01	1.00	-0.39	-2.90	2.54
0.06	-0.02	1.00	-0.22	-0.83	2.74
0.09	-0.02	1.00	-0.07	6.02	2.92
0.14	-0.02	0.00	0.23	17.10	1.59
0.14	-0.01	0.00	1.16	34.85	-0.10
0.11	-0.01	0.99	2.33	52.40	-1.17
0.09	-0.01	0.99	2.12	71.46	0.57
0.02	0.01	0.97	4.08	89.47	-2.86
-0.08	-0.02	0.96	4.41	98.47	-4.84
-0.15	-0.03	0.95	5.46	104.31	-7.08
-0.36	-0.01	0.90	6.95	107.81	-5.73
-0.43	-0.01	0.88	5.29	93.14	-6.40
-0.51	0.01	0.90	3.84	76.34	-4.77
-0.56	0.03	0.88	2.83	65.34	-2.98
-0.59	0.01	0.87	2.55	39.68	-0.66
-0.62	0.02	0.86	1.07	18.36	-0.00
-0.65	0.02	0.86	0.01	-6.69	-1.57
-0.63	0.03	0.86	-2.89	-34.47	0.94
-0.50	-0.02	0.91	-4.65	-56.61	3.97
-0.41	0.03	0.91	-3.40	-65.30	2.67
-0.37	0.01	0.91	-4.74	-69.17	4.41
-0.29	-0.04	0.94	-8.43	-69.82	9.65
-0.17	-0.03	0.97	-4.73	-70.37	1.61
-0.16	0.00	0.97	-3.86	-54.43	5.21
-0.08	-0.02	0.98	-3.35	-43.79	5.48
0.01	-0.01	0.98	-3.76	-20.27	12.91
0.06	-0.02	0.99	-3.40	8.01	15.07
0.06	-0.03	0.99	-0.47	41.33	5.24
-0.02	-0.02	0.98	3.08	63.70	-3.29
-0.20	-0.00	0.96	5.02	76.69	-7.76
-0.34	0.00	0.93	8.01	82.66	-12.07
-0.43	0.00	0.91	6.89	72.00	-4.23
-0.48	0.01	0.87	6.19	65.48	-8.40
-0.58	0.00	0.88	6.14	51.88	-7.98
-0.62	-0.22	0.68	6.23	28.33	-7.73
-0.60	-0.07	0.66	132.06	-28.39	23.70
-0.08	0.06	0.60	-29.39	-107.22	18.93
-0.40	-0.16	0.82	8.95	-92.87	20.97
-0.32	0.33	1.12	13.29	-106.82	4.91
-0.07	0.34	1.01	-7.34	-74.22	0.19
-0.08	0.04	0.89	-14.02	-49.56	5.30
-0.04	0.02	0.90	8.60	-40.14	11.56
-0.00	0.10	0.96	29.57	-15.39	9.24
0.05	0.05	0.95	-4.90	4.30	10.63
-0.15	0.02	0.99	-2.28	12.82	1.15
-0.22	0.11	0.97	-0.74	11.10	-10.53
-0.27	0.15	0.97	0.39	5.76	-7.54
-0.25	0.13	0.97	-0.89	-2.58	2.65
-0.22	0.13	0.97	-0.69	-7.94	7.85
-0.16	0.12	0.97	0.79	-8.69	2.79
-0.19	0.11	0.97	0.69	-8.10	0.97
-0.19	0.14	0.99	-0.46	-8.74	1.67
-0.14	0.12	0.97	-5.89	-8.90	5.04
-0.11	0.12	0.97	0.46	-5.86	0.86
-0.17	0.15	0.96	0.93	-0.80	-2.30
-0.18	0.11	0.98	0.94	3.12	-4.45
-0.16	0.15	0.98	1.22	1.90	-2.68
-0.16	0.13	0.99	-1.96	-4.45	2.92
-0.13	0.11	0.98	-3.53	-4.35	4.06
-0.16	0.09	0.97	-1.96	-0.00	0.30
-0.18	0.14	0.98	-0.59	1.07	-1.52
-0.16	0.12	0.97	0.87	-0.35	-1.68
-0.16	0.12	0.98	2.26	-0.90	-0.51
-0.18	0.13	0.99	0.71	-0.47	-1.32
-0.18	0.12	0.97	-2.08	-2.10	-2.22
-0.17	0.12	0.97	1.06	-3.90	-1.28
-0.19	0.13	0.96	-0.81	0.83	3.41
-0.16	0.14	0.98	1.03	6.03	5.96
-0.16	0.15	0.98	0.01	9.10	4.51
-0.06	0.18	0.00	0.39	7.33	1.89
0.01	0.13	1.01	1.84	20.52	-13.73
-0.22	0.05	0.97	-0.23	31.48	-21.70
-0.20	0.11	0.96	-2.86	7.06	5.25
-0.19	0.08	0.96	-0.49	11.94	-6.07
-0.12	0.15	0.97	-1.32	29.10	-17.99
-0.36	0.08	0.92	4.19	43.53	-29.39
-0.36	0.14	0.94	1.26	27.28	-13.94
-0.37	0.10	0.96	0.90	15.16	-7.15
-0.31	0.13	0.94	0.03	-1.81	-0.21
-0.33	0.11	0.94	-0.22	-7.76	3.00
-0.32	0.09	0.94	-0.82	-9.09	4.53
-0.22	0.09	0.97	-0.14	-10.98	2.16
-0.23	0.11	0.96	-0.41	-11.80	2.86
-0.27	0.10	0.97	-0.20	-20.79	5.37
-0.14	0.14	0.97	0.34	-30.29	7.78
-0.09	0.11	0.97	2.48	-25.39	-0.44
-0.16	0.18	0.99	-0.26	-11.85	-2.29
-0.30	0.20	0.95	-6.46	-4.37	-2.36
-0.28	0.08	1.06	-20.60	-7.92	9.61
-0.19	0.08	0.99	-28.63	-7.93	-16.11
-0.21	0.10	0.99	-29.84	-8.70	-22.33
-0.23	0.14	1.02	-41.19	-8.61	-33.13
-0.23	0.05	0.95	-48.85	-10.86	-31.14
-0.15	-0.05	0.91	-37.05	-12.58	-30.80
-0.18	-0.06	0.91	-19.21	-8.71	-25.10
-0.23	-0.05	0.95	-5.77	-11.71	-12.14
-0.21	-0.02	0.97	-0.76	-19.85	-1.47
-0.17	0.01	1.00	1.54	-21.21	7.72
-0.12	0.01	1.05	-10.12	-20.69	1.90
-0.11	0.02	1.03	-22.85	-17.25	-17.72
-0.05	-0.03	0.98	-28.50	-10.78	-24.12
-0.13	-0.08	0.95	-19.44	-2.46	-17.16
-0.15	-0.07	0.97	-12.91	-5.76	-1.20
-0.08	-0.02	1.00	-10.61	-5.31	7.94
-0.09	-0.06	0.98	-11.55	0.29	9.23
-0.12	-0.06	0.99	-8.30	1.09	8.82
-0.11	-0.05	1.00	-6.40	-0.77	7.20
-0.10	-0.04	1.02	-9.36	0.48	6.28
-0.11	-0.07	1.01	-12.49	-1.80	8.90
-0.15	-0.13	0.96	-15.71	-3.23	19.47
-0.14	-0.15	0.99	-12.46	-7.05	20.92
-0.09	-0.13	0.98	-13.84	-6.48	18.70
-0.11	-0.17	0.00	-12.04	-5.54	13.15
-0.09	-0.14	1.00	-11.17	-3.86	5.97
-0.10	-0.12	0.99	-11.76	-2.05	-4.22
-0.09	-0.14	0.98	-8.11	-1.83	-10.16
-0.08	-0.12	0.99	-4.83	0.76	-10.78
-0.13	-0.11	1.00	-4.97	0.23	-8.54
-0.13	-0.10	1.01	-9.54	-1.68	-2.56
-0.09	-0.15	0.97	-13.07	-3.86	5.30
-0.09	-0.18	0.98	-8.17	-2.72	12.30
-0.09	-0.18	0.99	-5.57	-1.80	11.51
-0.11	-0.15	1.00	-7.38	-1.64	5.92
-0.11	-0.16	0.99	-11.90	-2.95	-0.91
-0.09	-0.20	0.95	-9.51	-2.93	-0.77
-0.06	-0.26	0.94	2.41	0.14	2.01
-0.07	-0.20	0.99	12.93	4.17	-4.35
-0.18	-0.09	1.01	5.27	3.17	-10.14
-0.13	-0.09	0.99	-8.66	-1.81	-8.01
-0.08	-0.09	0.97	-15.70	-4.60	-8.26
-0.04	-0.18	0.99	-14.61	-3.98	-9.79
-0.06	-0.15	0.98	-11.57	-1.73	-5.24
-0.07	-0.18	0.98	-9.24	-1.61	-2.00
-0.08	-0.16	0.98	-8.46	-0.55	-0.46
-0.11	-0.17	0.98	-10.39	-1.44	-3.06
-0.11	-0.21	0.97	-12.55	-4.06	-0.71
-0.07	-0.23	0.97	-7.98	-5.64	4.17
-0.07	-0.25	0.97	4.28	-6.49	9.05
-0.08	-0.20	1.01	12.07	-7.65	9.21
-0.09	-0.18	1.02	8.56	-10.14	3.83
-0.09	-0.19	1.01	6.17	-13.37	2.74
-0.09	-0.22	1.00	7.89	-17.12	3.93
-0.07	-0.20	1.00	15.47	-20.76	5.15
-0.04	-0.17	0.97	21.13	-23.90	12.87
-0.01	-0.19	0.95	19.70	-22.85	12.98
0.05	-0.23	0.92	21.30	-17.67	9.58
0.07	-0.16	0.95	27.60	-11.46	2.64
0.07	-0.09	0.99	23.03	-5.44	-5.12
0.04	-0.08	0.00	16.85	-1.16	-2.54
0.01	-0.11	1.00	18.07	-0.19	-11.94
-0.01	-0.05	0.98	20.04	-0.07	-4.19
-0.05	-0.05	1.01	14.97	-2.63	7.46
-0.01	-0.05	1.04	11.46	-8.24	7.10
0.01	-0.06	1.00	7.17	-8.30	4.84
0.03	-0.05	0.98	-1.24	-8.82	3.94
0.06	-0.10	0.93	-3.39	-4.91	10.56
0.06	-0.06	0.95	0.32	-1.40	18.35
0.01	-0.08	1.02	-8.80	6.20	24.07
-0.01	-0.10	1.05	-6.89	2.89	25.54
0.01	-0.08	1.07	0.88	-7.50	17.24
-0.00	-0.08	1.02	8.97	-12.20	10.96
0.01	-0.03	1.02	0.32	-11.62	4.16
-0.00	-0.04	0.00	-6.66	-15.51	1.14
0.05	-0.02	0.98	-14.95	-18.34	1.87
0.08	-0.07	0.97	-21.48	-14.77	11.10
0.13	-0.17	1.02	-23.85	-1.64	16.60
0.09	-0.24	1.01	-5.06	-1.04	6.61
0.06	-0.16	0.98	13.31	-4.28	7.66
0.03	-0.11	1.01	16.01	-4.01	12.97
0.03	-0.16	1.01	12.36	-7.71	7.67
0.01	-0.10	1.03	15.98	-13.97	9.11
0.07	0.02	1.03	7.22	-16.41	13.45
0.18	-0.04	0.97	-0.62	-14.07	9.31
0.29	-0.04	0.89	-16.84	-0.57	-15.69
0.16	-0.11	0.92	-29.95	20.75	-13.00
-0.02	-0.23	1.04	-23.54	22.30	-10.87
-0.06	-0.22	1.06	0.28	7.60	-3.07
0.01	-0.14	1.02	15.40	-5.99	3.98
0.08	-0.04	1.00	13.42	-7.95	6.39
0.11	-0.00	1.01	4.96	-5.66	6.82
0.13	-0.06	0.99	-8.50	-0.66	2.27
0.11	-0.13	0.95	-14.39	4.51	-4.92
0.06	-0.16	0.98	-10.27	7.84	-1.10
0.07	-0.26	0.93	13.79	7.07	6.95
0.05	-0.20	0.97	27.78	8.79	2.75
0.04	-0.03	1.05	19.65	10.88	-2.70
0.02	0.07	1.14	-10.67	6.67	-10.04
0.02	-0.18	1.06	-6.01	-5.29	-7.91
0.00	-0.05	1.03	3.40	-12.62	-7.22
0.04	-0.07	0.99	-4.83	-14.84	1.24
0.10	-0.09	0.97	-13.06	-12.62	2.34
0.14	-0.19	0.93	-6.69	-7.82	-0.45
0.13	-0.15	0.92	11.72	-1.66	4.46
0.07	-0.06	1.01	6.62	5.61	2.25
0.07	-0.06	1.03	-4.87	6.15	0.37
0.05	-0.13	1.03	-8.59	4.35	-4.53
0.04	-0.15	1.01	-0.74	-2.93	-5.62
0.04	-0.14	1.00	11.97	-7.38	3.46
0.07	-0.10	0.99	17.48	-9.62	12.71
0.08	-0.11	0.99	18.09	-9.29	8.67
0.11	-0.05	0.99	15.82	-10.12	2.93
0.14	-0.03	0.97	8.50	-3.83	5.75
0.13	-0.06	0.98	5.96	2.10	4.58
0.11	-0.01	0.99	1.32	4.56	2.31
0.10	-0.07	0.99	-6.82	5.63	1.24
0.07	-0.09	1.03	-6.25	5.85	2.25
0.06	-0.08	1.04	-4.61	1.31	0.82
0.05	-0.13	1.01	-1.48	-3.83	2.43
0.06	-0.11	1.01	3.24	-6.78	2.32
0.10	-0.04	0.98	5.12	-7.62	3.19
0.13	-0.04	0.97	-7.31	-1.60	4.34
0.10	-0.11	0.99	-8.85	1.47	-0.42
0.07	-0.10	1.02	0.06	-0.78	2.41
0.07	-0.14	1.01	0.12	-4.09	-2.75
0.09	-0.11	0.99	5.86	-5.21	-3.25
0.11	-0.05	1.00	6.60	-5.87	0.13
0.14	-0.04	0.98	-0.10	-4.05	0.81
0.14	-0.09	0.97	-4.06	1.16	-4.43
0.08	-0.08	1.02	-7.12	2.78	-6.90
0.06	-0.11	1.02	-7.15	-2.62	-1.24
0.14	-0.14	0.00	-3.41	-6.70	-11.30
0.10	-0.11	0.97	4.63	-2.54	-7.48
0.11	-0.03	1.01	4.67	-0.95	-1.89
0.10	-0.07	0.00	3.67	-1.26	1.48
0.13	-0.07	0.97	7.60	-0.16	0.28
0.13	-0.06	0.99	6.82	2.36	1.29
0.13	-0.03	0.99	-2.67	5.62	1.50
0.14	-0.07	0.98	-10.13	8.50	0.93
0.09	-0.10	1.00	-11.69	11.39	-1.01
0.07	-0.12	1.01	-6.92	10.24	-6.01
0.06	-0.15	0.98	1.45	8.70	-2.12
0.07	-0.12	0.98	8.60	7.85	1.29
0.07	-0.09	0.00	11.28	7.50	1.27
0.08	-0.08	1.01	9.34	5.70	0.18
0.09	-0.08	1.01	10.04	5.70	2.45
0.05	-0.03	1.05	8.91	3.96	-3.89
0.06	-0.09	0.00	5.86	2.19	-2.96
0.09	-0.14	0.97	10.07	1.95	-1.27
0.09	-0.04	0.98	15.95	4.46	-2.03
0.07	-0.09	0.99	16.89	4.05	-3.43
0.07	0.01	0.98	18.92	5.64	-5.02
0.06	-0.03	1.01	17.25	9.03	3.42
0.05	0.05	1.02	15.64	6.05	1.01
0.01	-0.04	1.03	8.69	3.02	-1.52
0.03	-0.06	1.02	10.43	1.36	-0.82
0.08	-0.02	1.01	14.28	1.60	-5.75
0.08	0.05	0.98	17.84	-0.21	-10.35
0.05	0.04	0.99	15.00	1.09	1.72
0.08	-0.03	0.95	20.67	2.11	9.01
0.04	0.08	1.04	23.79	4.44	7.82
0.01	0.08	1.07	17.03	3.12	2.59
0.04	0.10	1.05	7.21	1.33	-0.11
0.02	0.05	1.03	-5.66	-3.14	4.28
0.06	-0.08	0.99	6.47	-7.66	4.86
0.11	0.09	0.97	18.01	-4.66	-4.15
0.10	0.14	0.96	8.82	-0.21	-5.63
0.07	0.09	0.98	-1.50	5.53	-0.96
0.06	0.10	1.01	-1.42	7.28	-2.88
0.05	0.02	0.97	-2.51	9.18	-6.82
-0.04	0.04	1.02	-0.64	9.24	-7.37
-0.01	0.01	1.04	0.86	2.62	1.64
0.02	0.04	1.03	8.79	-2.09	2.31
0.02	0.11	1.00	12.62	-6.47	4.99
0.00	0.10	1.02	5.14	-7.36	18.22
0.05	0.15	0.99	2.37	-9.27	22.76
0.07	0.12	1.00	-5.83	-5.76	26.04
0.10	0.06	0.99	-15.17	-0.47	19.10
0.08	0.03	0.98	-14.39	-0.16	11.64
0.06	0.07	0.97	-12.10	3.25	0.19
-0.05	-0.09	1.00	-19.11	7.01	-6.62
0.05	0.03	1.04	-13.20	2.20	-8.83
0.05	-0.08	1.01	-6.72	-2.91	4.32
0.06	0.04	0.98	8.69	-3.39	-2.03
0.05	0.12	0.99	-6.05	1.03	3.80
0.03	0.00	1.05	-10.78	-0.88	-2.64
0.03	-0.01	0.99	-0.20	-4.39	-13.49
0.05	0.01	0.98	6.57	-4.06	-6.16
0.05	0.10	1.04	7.37	-3.73	1.13
0.09	0.02	0.99	4.35	-4.89	2.59
0.09	0.04	0.96	6.22	-0.75	0.71
0.06	0.12	1.03	0.38	3.79	7.76
0.06	0.06	1.04	-4.18	2.30	4.96
0.02	0.01	0.00	-0.82	-1.18	1.38
0.03	0.02	0.98	4.36	-2.07	3.22
0.05	0.03	0.99	0.90	-0.42	4.07
0.09	-0.00	0.99	2.54	0.03	1.92
0.08	0.07	0.00	4.32	1.29	-1.67
0.02	-0.00	1.01	-0.29	3.01	2.49
0.02	0.04	1.02	10.59	-1.80	4.09
0.07	0.15	0.00	4.80	-2.24	3.08
0.10	0.14	0.00	-16.14	2.64	8.30
0.07	0.04	0.99	-25.51	7.21	-1.86
0.01	0.02	1.02	-34.84	7.44	-6.43
0.03	-0.08	0.96	-41.87	9.50	-24.13
-0.01	-0.04	1.05	-48.46	9.07	-38.93
-0.04	-0.01	1.10	-54.41	-4.63	-31.65
0.01	-0.19	1.06	-41.91	-17.69	-10.17
0.06	-0.10	1.06	-22.55	-24.67	-16.23
0.04	0.02	0.99	-28.93	-29.13	-21.28
0.09	-0.07	0.90	-41.74	-22.06	-5.02
0.15	-0.10	0.93	-34.90	-10.52	-5.99
0.14	-0.07	0.99	-44.65	-1.38	-13.69
0.05	-0.31	0.99	-46.56	-3.53	-18.11
0.12	-0.33	0.94	-24.88	-8.03	-13.78
0.19	-0.00	0.99	-38.47	3.06	-37.34
0.15	-0.20	0.98	-65.17	12.25	-41.84
0.09	-0.39	0.92	-46.46	4.83	-20.90
0.09	-0.34	0.95	-1.99	-6.19	3.20
0.13	-0.20	1.02	-8.89	-7.29	-7.21
0.13	-0.35	0.96	-43.00	-1.29	-49.08
0.08	-0.40	0.93	-24.43	-7.98	-49.54
0.15	-0.29	0.94	-6.07	-11.43	-26.23
0.19	-0.26	0.93	-12.43	-5.26	-29.08
0.21	-0.27	0.91	-12.79	-3.36	-31.41
0.26	-0.29	0.86	1.77	9.57	-13.94
0.19	-0.23	0.92	-1.52	16.90	-17.64
0.15	-0.26	0.96	-12.95	20.15	-19.94
0.02	-0.32	1.01	-1.25	12.00	4.06
0.05	-0.40	1.01	19.38	-0.32	14.24
0.10	-0.34	1.02	21.31	-10.11	7.08
0.12	-0.31	0.99	25.14	-10.49	5.70
0.11	-0.24	0.95	30.70	-15.04	17.48
0.24	-0.25	0.92	25.72	-16.24	17.35
0.25	-0.19	0.91	6.44	-1.82	1.47
0.20	-0.19	0.96	-6.95	7.33	-4.22
0.09	-0.28	0.99	3.81	2.43	11.55
0.15	-0.29	0.97	24.17	-12.04	12.36
0.25	-0.23	0.89	16.94	-5.93	-1.98
0.13	-0.08	1.02	-8.89	6.59	-4.85
0.12	-0.27	1.00	-14.70	2.31	1.93
0.17	-0.29	0.91	3.03	-0.71	9.95
0.21	-0.20	0.95	-3.41	1.03	6.03
0.13	-0.23	0.96	-20.34	5.93	0.62
0.10	-0.31	0.97	-10.20	1.98	2.36
0.12	-0.34	0.97	0.91	-2.41	5.83
0.17	-0.26	0.97	13.10	-4.19	3.20
0.12	-0.23	1.02	2.06	-7.29	0.03
0.16	-0.26	1.00	-19.92	-6.06	-14.45
0.22	-0.25	0.99	-25.25	-3.76	-29.74
0.12	-0.28	1.01	-28.44	-4.06	-17.75
0.16	-0.41	0.97	-11.29	-10.69	-7.15
0.15	-0.27	0.96	30.95	-19.12	-0.00
0.21	-0.23	0.93	22.89	-16.14	2.83
0.27	-0.24	0.90	10.85	-4.06	-9.61
0.17	-0.19	0.97	-4.85	1.57	-19.46
0.16	-0.27	0.97	-9.83	-5.10	-26.57
0.22	-0.30	0.95	-1.02	-12.55	-38.21
0.27	-0.18	0.93	2.70	-10.54	-43.84
0.23	-0.19	0.94	-12.04	-2.88	-35.69
0.22	-0.27	0.98	-20.06	-4.75	-39.74
0.24	-0.30	0.95	0.06	-11.25	-34.95
0.25	-0.16	0.90	17.06	-10.06	-4.66
0.24	-0.11	0.93	2.00	-7.69	16.08
0.29	-0.20	0.92	-17.76	-9.40	6.28
0.32	-0.28	0.88	-20.79	-4.34	1.40
0.29	-0.26	0.94	-11.61	0.78	4.42
0.24	-0.24	0.94	-3.19	1.91	5.90
0.24	-0.26	0.94	-3.12	1.70	20.63
0.24	-0.24	0.96	-1.24	0.03	23.99
0.28	-0.27	0.93	-7.44	-0.68	14.03
0.27	-0.28	0.95	-16.71	4.39	-1.38
0.24	-0.29	0.96	-15.51	4.22	-3.22
0.23	-0.32	0.93	-15.38	3.03	0.48
0.25	-0.37	0.96	-18.43	4.14	-1.12
0.24	-0.32	0.97	0.23	0.84	1.93
0.23	-0.28	0.95	9.76	-2.41	7.15
0.22	-0.22	0.95	7.21	-6.13	5.38
0.30	-0.28	0.90	-4.54	-5.60	0.38
0.29	-0.30	0.90	-9.28	3.78	-6.76
0.23	-0.27	0.91	-5.63	4.47	4.56
0.27	-0.28	0.90	-3.99	3.91	13.41
0.23	-0.30	0.92	-3.75	6.28	15.56
0.23	-0.31	0.94	-0.75	4.02	14.24
0.24	-0.29	0.93	-4.22	4.60	9.66
0.20	-0.34	0.93	-9.38	7.08	7.52
0.18	-0.39	0.97	-0.05	2.12	5.86
0.19	-0.36	0.98	10.14	-6.50	7.28
0.23	-0.32	0.93	14.58	-11.49	11.04
0.26	-0.28	0.94	10.39	-6.15	6.37
0.25	-0.30	0.93	6.24	-4.92	-1.68
0.23	-0.31	0.93	6.62	-3.00	-4.18
0.24	-0.28	0.94	8.29	-5.05	-5.43
0.25	-0.29	0.91	10.97	-4.31	-2.70
0.25	-0.27	0.94	10.24	-6.20	-4.94
0.25	-0.22	0.93	8.50	-6.03	-0.70
0.30	-0.25	0.92	5.75	-3.56	1.28
0.28	-0.22	0.93	-3.44	2.12	-6.73
0.23	-0.28	0.93	-9.43	4.96	-5.56
0.23	-0.30	0.93	-5.18	2.75	1.61
0.24	-0.27	0.94	-0.55	1.34	11.33
0.27	-0.28	0.92	-1.78	1.86	7.38
0.24	-0.27	0.95	-5.60	3.48	-4.02
0.26	-0.26	0.95	-10.87	1.29	-2.75
0.24	-0.32	0.93	-8.56	4.55	0.88
0.22	-0.31	0.94	-4.17	1.97	1.71
0.25	-0.26	0.94	-7.92	1.72	3.38
0.26	-0.30	0.93	-16.96	6.33	6.61
0.22	-0.38	0.94	-11.69	5.95	3.97
0.21	-0.32	0.95	-2.80	0.57	1.67
0.24	-0.32	0.93	-2.49	-0.70	1.07
0.25	-0.25	0.94	-5.93	0.28	-2.78
0.22	-0.32	0.91	-12.79	3.48	-1.06
0.21	-0.32	0.93	-6.31	0.77	-2.85
0.25	-0.31	0.95	-13.59	-1.80	-1.33
0.24	-0.30	0.93	-8.57	-0.33	-4.89
0.26	-0.39	0.93	-12.14	-0.41	-7.15
0.22	-0.39	0.93	-12.43	0.51	-10.75
0.20	-0.40	0.92	-1.67	-2.19	-0.69
0.24	-0.32	0.93	9.08	-6.60	10.40
0.25	-0.33	0.92	11.46	-8.19	12.31
0.30	-0.23	0.90	2.16	-3.03	4.77
0.26	-0.36	0.92	-20.84	6.80	4.09
0.18	-0.47	0.95	2.27	0.41	-2.92
0.19	-0.36	0.96	16.91	-9.13	-2.73
0.27	-0.20	0.89	9.01	-10.19	11.99
0.32	-0.45	0.91	-14.00	4.43	8.69
0.21	-0.38	0.94	3.32	1.27	-5.46
0.20	-0.34	0.93	8.36	-5.49	-1.60
0.30	-0.26	0.91	8.61	-7.85	4.73
0.29	-0.29	0.91	-11.67	5.37	-0.45
0.20	-0.33	0.96	-13.84	4.91	-10.81
0.21	-0.38	0.93	-8.04	-2.84	-5.02
0.28	-0.33	0.92	0.01	-5.21	0.28
0.23	-0.37	0.93	1.10	-2.19	-3.26
0.30	-0.28	0.88	-16.41	-0.26	3.15
0.23	-0.41	0.93	-15.96	-1.01	5.78
0.24	-0.47	0.95	1.00	-5.26	-14.07
0.29	-0.22	0.89	20.18	-10.23	-9.79
0.35	-0.30	0.81	-25.33	11.18	15.49
0.16	-0.58	0.99	-17.07	5.94	-3.86
0.23	-0.29	0.93	21.84	-11.75	-18.57
0.35	-0.14	0.86	-11.75	-2.66	8.30
0.20	-0.70	0.96	-16.32	12.92	-3.68
0.22	-0.24	0.88	32.21	-13.95	-1.98
0.42	-0.21	0.84	10.14	-3.81	20.43
0.33	-0.37	0.84	17.72	9.70	34.63
0.12	-0.52	0.97	28.71	17.19	15.64
0.23	-0.32	0.90	29.46	4.09	-15.38
0.32	-0.09	0.94	-1.34	17.92	-7.47
0.14	-0.40	1.05	9.25	16.81	5.37
0.15	-0.39	0.98	43.31	-5.68	9.91
0.23	-0.27	0.91	47.84	-9.69	8.03
0.23	-0.17	0.89	34.97	-5.70	11.65
0.27	-0.17	0.91	3.54	1.99	14.77
0.25	-0.29	0.92	-6.01	6.63	12.23
0.19	-0.26	0.94	1.80	7.69	9.86
0.17	-0.28	0.97	-1.09	4.15	8.11
0.20	-0.30	0.98	-1.83	3.18	4.12
0.18	-0.32	0.99	-2.93	3.38	-0.03
0.19	-0.33	0.98	-1.87	0.15	-4.91
0.21	-0.32	0.97	1.07	0.40	-7.92
0.20	-0.26	0.00	6.45	-2.00	-10.17
0.21	-0.18	0.97	14.13	-8.90	-1.04
0.26	-0.19	0.94	-1.97	-3.09	1.54
0.26	-0.23	0.95	-14.35	3.35	-7.56
0.22	-0.25	0.95	-13.86	3.01	-5.07
0.18	-0.29	0.96	-1.71	-0.33	3.30
0.21	-0.29	0.94	2.67	-3.70	3.49
0.23	-0.28	0.91	0.29	-1.86	1.28
0.22	-0.26	0.93	-2.45	0.04	-0.93
0.22	-0.27	0.94	-5.31	0.71	-2.21
0.22	-0.27	0.95	-7.00	0.85	-5.29
0.24	-0.24	0.94	-8.14	3.63	-2.64
0.19	-0.26	0.95	-8.82	5.36	4.41
0.22	-0.28	0.93	-19.92	4.41	2.14
0.21	-0.32	0.97	-21.70	5.88	-1.29
0.19	-0.40	0.98	-4.62	0.93	-5.88
0.19	-0.29	0.97	10.23	-7.85	-12.11
0.24	-0.26	0.94	7.78	-7.18	-7.64
0.23	-0.29	0.93	4.07	-2.65	-2.82
0.24	-0.28	0.93	6.46	-2.62	-3.99
0.23	-0.25	0.93	8.30	-2.34	-1.59
0.21	-0.23	0.96	10.56	-3.66	4.51
0.24	-0.22	0.90	-0.00	-0.91	12.23
0.21	-0.32	0.94	-15.23	6.94	5.65
0.19	-0.33	0.97	-8.14	1.36	-2.99
0.20	-0.31	0.94	-2.88	-1.77	1.32
0.22	-0.29	0.92	-8.78	3.47	7.12
0.21	-0.29	0.95	-13.43	2.86	9.40
0.23	-0.32	0.93	-5.14	0.68	6.78
0.23	-0.27	0.95	-1.42	-0.89	3.00
0.23	-0.24	0.92	-4.86	-0.54	5.75
0.22	-0.32	0.91	-18.54	5.41	4.25
0.16	-0.38	0.97	-11.21	1.89	3.02
0.20	-0.33	0.94	0.11	-6.52	-1.40
0.27	-0.27	0.91	-4.97	-5.02	2.39
0.24	-0.34	0.92	-5.46	3.99	7.57
0.16	-0.33	0.94	1.12	-1.33	-0.74
0.16	-0.33	0.96	-6.31	-3.94	-1.27
0.27	-0.35	0.96	-8.11	-3.21	-0.85
0.25	-0.35	0.93	0.93	0.61	-5.90
0.22	-0.34	0.93	-2.83	1.61	-22.38
0.16	-0.28	0.98	-6.08	-0.16	-25.40
0.20	-0.26	0.89	-16.60	-3.98	2.02
0.25	-0.38	0.91	-15.98	-1.15	16.84
0.27	-0.37	0.87	5.93	-3.34	8.69
0.27	-0.26	0.91	-5.79	0.87	-8.22
0.21	-0.37	0.89	-26.13	10.43	-2.14
0.12	-0.42	0.93	-4.63	6.73	7.22
0.18	-0.37	0.98	6.17	-2.77	6.63
0.22	-0.28	0.90	2.18	-0.68	12.89
0.21	-0.43	0.96	-6.60	4.74	11.37
0.16	-0.37	0.95	8.47	-5.85	-2.43
0.25	-0.25	0.89	3.10	-7.53	-0.07
0.25	-0.34	0.92	-14.79	0.13	9.36
0.22	-0.46	0.97	7.82	2.44	7.66
0.24	-0.24	0.87	0.86	-3.10	-8.59
0.18	-0.39	0.98	-17.34	1.68	-10.57
0.21	-0.49	0.94	7.52	-3.69	-1.67
0.28	-0.23	0.83	5.37	-4.55	-4.26
0.20	-0.40	0.92	-18.15	4.28	-21.01
0.20	-0.38	0.94	0.45	-0.29	-5.18
0.28	-0.25	0.80	12.73	3.75	21.82
0.18	-0.38	0.97	-15.48	7.30	-16.20
0.25	-0.31	0.91	-5.56	1.61	-9.24
0.23	-0.35	0.89	22.01	0.45	24.11
0.17	-0.53	0.97	5.71	13.47	17.78
0.11	-0.57	1.00	22.58	4.12	-6.56
0.26	-0.24	0.93	36.82	-2.44	-7.14
0.26	-0.23	0.94	35.12	7.15	14.14
0.12	-0.31	0.94	38.82	2.92	13.97
0.18	-0.36	0.89	50.48	-2.82	6.72
0.14	-0.18	0.94	51.92	-5.02	19.89
0.28	-0.08	0.89	39.25	-3.65	26.54
0.34	-0.10	0.88	18.43	15.22	33.05
0.15	-0.13	0.91	-1.76	31.34	37.82
0.17	-0.30	0.95	-14.39	32.79	30.29
0.13	-0.34	0.91	13.72	37.45	34.28
-0.00	-0.26	0.99	33.17	32.61	36.48
0.05	-0.25	0.98	39.56	21.16	22.99
-0.01	-0.18	0.98	46.26	19.59	24.26
0.05	-0.16	0.99	32.37	15.10	31.25
0.06	-0.23	0.98	28.71	16.37	37.16
-0.04	-0.05	1.03	2.14	15.61	49.67
0.06	-0.43	1.08	-3.55	8.20	31.08
0.05	-0.37	1.04	42.74	-2.60	9.47
0.00	-0.15	1.02	65.35	-9.19	-6.47
0.07	-0.02	1.00	52.94	-9.46	-12.84
0.07	0.02	0.98	38.72	-4.09	-6.15
0.11	0.04	0.99	22.31	3.98	5.25
0.18	0.01	0.97	14.35	18.31	10.97
-0.01	-0.01	1.03	15.80	33.76	8.68
-0.10	-0.04	1.04	16.34	17.15	-4.53
-0.01	-0.06	0.96	21.37	14.94	-8.69
-0.10	0.02	1.00	27.82	17.54	-4.67
-0.09	-0.03	0.96	-22.09	4.41	-12.20
0.03	0.05	1.02	-9.47	8.24	-5.43
-0.07	0.03	0.98	-7.85	4.74	7.79
-0.02	0.02	0.97	-13.14	3.38	15.45
-0.13	-0.13	1.13	-3.29	7.14	13.16
-0.09	-0.08	1.01	-0.64	4.09	4.28
-0.08	-0.03	1.01	-0.88	-3.88	-6.21
-0.04	-0.02	0.00	-0.52	-3.77	-5.89
-0.05	-0.02	0.00	-0.18	0.07	-7.21
-0.02	0.02	1.00	-0.04	-1.93	-11.63
-0.03	0.09	1.00	-0.85	-4.22	2.66
-0.04	-0.05	0.00	-0.59	-4.16	9.70
-0.11	-0.00	1.01	-1.40	-3.41	18.82
-0.06	-0.05	1.01	-1.91	-14.99	18.12
0.05	0.02	1.00	-1.19	-20.08	2.06
0.06	-0.03	0.00	-1.04	-17.91	9.72
-0.03	-0.03	1.00	-0.00	-8.81	-4.99
0.01	0.00	1.00	-0.74	-15.16	-6.34
0.03	-0.04	1.00	-0.55	-12.44	-1.89
0.08	-0.03	0.00	-0.88	-10.36	-2.42
0.05	0.00	1.00	-0.59	-1.55	-2.61
-0.01	-0.01	1.00	-0.48	-7.46	2.76
0.21	-0.02	0.00	-0.43	-3.97	10.49
0.19	-0.02	0.99	0.08	12.59	8.71
0.28	-0.03	0.98	0.64	29.09	6.84
0.12	-0.03	0.98	0.73	53.43	-1.46
0.05	-0.03	0.98	2.89	66.35	0.22
-0.00	0.03	0.99	3.25	75.47	-3.12
-0.12	-0.01	0.98	3.80	81.31	-4.86
-0.28	-0.02	0.97	4.96	75.42	-11.69
-0.34	0.01	0.98	3.25	51.21	-11.11
-0.41	0.00	0.96	2.10	34.02	-5.68
-0.43	0.00	0.96	0.47	9.90	-2.56
-0.50	0.01	0.96	-0.74	-20.21	-0.99
-0.40	-0.00	0.96	-2.90	-52.15	4.73
-0.21	-0.01	0.96	-4.29	-67.78	7.38
-0.11	0.00	1.00	-4.32	-71.61	8.06
0.06	-0.01	0.99	-3.48	-66.65	4.66
0.14	-0.02	0.99	-2.75	-41.46	9.40
0.19	-0.03	1.00	-1.46	-14.42	11.49
0.29	-0.01	0.99	-0.07	15.90	3.83
0.25	-0.01	0.98	2.26	49.81	-4.79
0.02	-0.02	0.96	3.19	78.60	-1.75
-0.04	-0.01	0.99	3.48	88.15	-4.39
-0.12	-0.06	0.97	4.21	96.53	-5.37
-0.26	-0.06	0.96	6.37	95.33	-13.88
-0.44	-0.00	0.93	7.66	85.71	-16.29
-0.52	0.01	0.90	5.81	57.18	-11.24
-0.60	0.03	0.90	4.76	33.06	-7.69
-0.52	0.03	0.88	2.73	15.93	-4.56
-0.55	0.01	0.92	-1.44	-1.80	2.32
-0.49	-0.04	0.91	-1.23	-18.86	-0.00
-0.54	-0.02	0.91	1.16	-41.91	-8.18
-0.54	0.04	0.91	0.37	-62.29	-8.34
-0.45	0.02	0.92	-2.99	-87.64	-0.88
-0.30	-0.03	0.91	-5.68	-108.39	4.60
-0.14	-0.03	0.96	-5.67	-110.65	5.80
-0.04	0.01	0.00	-6.14	-104.19	6.06
-0.00	0.02	0.97	-4.54	-100.97	5.99
0.16	-0.02	0.95	-2.69	-95.18	10.11
0.22	-0.02	0.96	-3.02	-77.42	10.62
0.26	-0.01	0.98	-1.75	-64.90	2.22
0.22	-0.01	0.97	-2.39	-49.82	-0.68
0.25	-0.04	0.98	-1.98	-41.18	-0.03
0.29	-0.02	0.97	-1.48	-30.38	-0.79
0.31	-0.04	0.97	-1.32	-17.46	-1.48
0.28	-0.01	0.98	-1.17	-6.81	-2.03
0.32	-0.02	0.97	0.03	4.29	0.56
0.38	-0.03	0.96	0.38	20.50	-1.24
0.33	-0.03	0.99	-0.42	40.06	-5.79
0.26	-0.04	0.97	0.50	54.17	-4.61
0.19	-0.04	0.99	2.59	68.18	0.83
0.20	-0.01	0.97	2.77	79.12	6.84
0.13	0.01	0.98	3.58	91.05	8.85
0.05	-0.05	0.00	1.80	93.28	0.93
-0.13	-0.01	0.98	3.22	89.73	-6.63
-0.17	0.01	0.97	3.66	81.98	-5.09
-0.20	0.01	0.96	2.15	77.83	3.29
-0.21	-0.02	0.98	1.53	73.66	4.75
-0.34	-0.02	0.96	2.51	59.09	-3.74
-0.40	-0.00	0.94	4.90	38.68	-13.16
-0.57	0.03	0.94	2.34	11.09	-8.20
-0.55	0.02	0.95	-0.58	-24.23	-2.52
-0.52	0.01	0.95	-1.81	-58.62	-1.53
-0.45	0.02	0.95	-4.28	-93.79	1.54
-0.28	-0.01	0.95	-6.05	-125.36	2.94
-0.17	-0.05	0.94	-7.24	-136.88	7.39
-0.03	-0.02	0.93	-3.66	-151.11	5.87
0.16	-0.03	0.97	-6.03	-154.19	1.67
0.28	-0.01	0.93	-4.11	-147.30	3.00
0.35	-0.01	0.88	-2.69	-137.14	8.34
0.47	-0.04	0.86	-1.42	-121.30	9.41
0.57	-0.03	0.85	0.19	-97.73	9.52
0.69	-0.03	0.83	-2.45	-76.15	1.68
0.68	-0.03	0.84	-2.02	-48.12	-0.30
0.73	-0.03	0.83	0.26	-18.51	2.28
0.73	-0.04	0.82	0.19	13.74	0.06
0.67	-0.05	0.85	-0.39	42.20	-1.48
0.61	-0.02	0.84	1.29	65.63	-1.06
0.44	-0.04	0.87	-2.00	82.55	-8.57
0.25	-0.01	0.95	-3.28	79.20	-15.55
0.07	-0.03	0.00	-5.59	51.80	-17.60
-0.05	-0.02	1.02	-6.76	11.34	-19.82
-0.08	-0.01	1.03	-4.16	-29.52	-7.10
0.04	0.01	0.98	-0.15	-69.59	6.28
0.26	-0.03	0.92	2.45	-96.96	13.99
0.42	-0.01	0.84	3.39	-106.31	14.43
0.58	-0.04	0.81	3.70	-101.71	12.76
0.76	-0.05	0.79	4.91	-86.61	10.61
0.90	0.00	0.74	11.24	-50.43	18.45
0.92	-0.05	0.72	9.66	-2.08	13.40
0.88	-0.06	0.72	-0.47	28.47	-1.39
0.73	-0.01	0.77	-0.88	63.76	-3.99
0.62	-0.04	0.80	-2.20	81.98	-8.01
0.47	-0.01	0.86	-2.75	94.56	-8.85
0.32	-0.00	0.93	-0.57	90.13	-6.21
0.26	-0.04	0.95	-2.04	74.22	-9.33
0.16	-0.03	0.97	-1.20	54.91	-5.76
0.12	-0.04	0.99	-1.03	31.00	-4.25
0.08	-0.03	0.00	-0.93	1.02	-1.68
0.13	-0.03	0.99	-1.50	-29.24	0.06
0.14	-0.01	0.96	-1.05	-55.46	3.22
0.29	-0.02	0.93	0.29	-78.29	7.98
0.39	-0.02	0.89	3.25	-86.80	10.01
0.58	-0.04	0.85	-0.05	-93.47	5.51
0.68	-0.03	0.81	2.32	-79.31	10.27
0.79	-0.03	0.78	7.15	-47.96	12.60
0.84	-0.02	0.73	7.11	-10.56	10.89
0.87	-0.03	0.74	3.90	25.72	4.19
0.82	-0.03	0.79	1.29	57.96	1.29
0.69	-0.06	0.78	-0.74	91.28	-4.76
0.55	-0.04	0.83	-2.66	100.51	-10.08
0.37	-0.05	0.91	2.81	108.15	-1.00
0.25	-0.04	0.92	2.32	101.32	-1.26
0.13	-0.03	0.95	1.66	85.95	-2.99
0.01	-0.02	0.99	0.09	63.30	-6.21
-0.03	-0.02	1.01	-0.07	43.26	-4.17
-0.12	-0.02	1.03	-1.42	4.44	-4.61
-0.14	-0.01	1.02	-1.41	-40.88	1.19
0.09	-0.02	0.96	-1.54	-94.77	7.12
0.22	-0.02	0.91	0.99	-112.48	13.81
0.44	-0.05	0.85	0.35	-123.27	12.90
0.58	-0.02	0.81	0.37	-107.31	10.38
0.76	-0.05	0.81	1.86	-80.11	8.03
0.82	-0.00	0.76	7.80	-41.39	13.23
0.88	-0.04	0.77	6.88	-1.77	10.00
0.85	-0.03	0.73	1.43	35.38	1.58
0.73	-0.02	0.79	2.97	62.53	0.29
0.63	-0.09	0.83	-2.60	85.61	-7.33
0.49	-0.05	0.90	-5.60	97.88	-12.26
0.28	-0.00	0.95	2.32	104.10	-3.45
0.21	-0.04	0.97	0.77	90.02	-5.05
0.12	-0.04	0.97	-0.17	74.41	-6.53
0.01	-0.02	1.00	-1.40	44.48	-9.57
-0.07	-0.01	1.02	-2.80	9.17	-10.41
-0.05	-0.02	1.02	-2.72	-28.24	-4.78
0.04	-0.01	0.99	-0.97	-63.47	4.89
0.17	-0.03	0.99	-1.12	-86.33	8.80
0.31	-0.05	0.94	1.14	-99.77	12.94
0.57	-0.05	0.89	1.93	-102.14	11.34
0.63	-0.02	0.83	2.50	-83.06	12.63
0.72	-0.02	0.80	3.10	-51.70	7.56
0.84	-0.05	0.79	-1.03	-22.88	0.68
0.80	-0.05	0.79	-0.01	17.51	-0.89
0.71	-0.03	0.81	-0.87	50.56	-2.71
0.59	-0.03	0.84	2.86	77.46	-0.36
0.48	-0.07	0.88	-2.25	90.26	-6.37
0.35	-0.03	0.95	-1.12	94.22	-8.38
0.22	-0.03	0.99	1.32	91.41	-4.34
0.09	-0.02	0.98	0.80	71.60	-3.54
-0.01	-0.03	1.00	-0.98	42.07	-6.67
-0.10	-0.01	1.02	-2.03	4.43	-5.97
-0.05	0.01	1.01	-2.29	-36.93	-1.16
0.11	-0.00	0.98	-0.46	-68.99	7.00
0.26	-0.02	0.96	2.86	-81.63	15.77
0.47	-0.05	0.91	1.73	-84.36	12.55
0.52	-0.03	0.88	2.88	-68.22	13.45
0.60	-0.01	0.84	2.84	-48.89	7.93
0.67	-0.04	0.84	0.03	-28.42	3.54
0.68	-0.03	0.84	-0.04	3.83	0.53
0.65	-0.03	0.85	-0.79	21.50	-2.40
0.54	-0.03	0.87	-1.07	44.11	-2.67
0.46	-0.04	0.90	2.31	57.57	0.70
0.43	-0.02	0.93	0.19	63.45	-2.83
0.31	-0.01	0.93	1.06	64.24	-2.75
0.21	-0.03	0.97	-0.77	56.86	-7.04
0.15	-0.03	0.98	0.25	44.81	-2.70
0.08	-0.03	1.00	-0.91	26.91	-3.93
0.06	0.00	1.00	-0.94	1.46	-1.26
0.15	-0.03	0.99	-0.39	-21.11	2.21
0.22	-0.02	0.97	-0.88	-30.60	2.19
0.27	-0.02	0.97	0.60	-34.73	7.23
0.38	-0.03	0.93	1.67	-35.52	7.83
0.44	-0.02	0.93	0.51	-25.59	5.12
0.46	-0.04	0.93	2.07	-15.93	8.37
0.47	-0.05	0.92	2.77	3.12	7.89
0.45	-0.02	0.92	0.84	14.73	1.83
0.37	-0.03	0.94	0.22	25.94	-1.06
0.30	-0.05	0.96	-0.84	29.11	-2.73
0.21	-0.02	0.97	-0.15	24.20	-2.31
0.21	-0.01	0.98	-1.32	11.81	-3.89
0.20	-0.01	0.98	-1.89	2.77	-4.98
0.20	-0.02	0.98	-3.29	-6.82	-8.27
0.22	-0.01	0.98	-1.87	-16.01	-2.58
0.30	-0.02	0.96	0.17	-22.18	3.28
0.38	-0.04	0.95	0.20	-18.12	3.93
0.41	-0.03	0.93	-1.28	-13.10	-1.19
0.39	-0.03	0.95	-1.41	2.01	-3.38
0.34	-0.03	0.95	0.34	7.54	0.90
0.34	-0.03	0.95	0.26	11.71	0.15
0.31	-0.03	0.96	-0.42	12.78	-1.11
0.27	-0.02	0.96	-0.74	10.12	-1.47
0.24	-0.02	0.97	-0.47	3.91	-0.25
0.23	-0.02	0.97	-0.20	-2.82	1.28
0.27	-0.02	0.97	0.10	-9.46	2.67
0.31	-0.02	0.96	0.71	-12.01	4.51
0.33	-0.03	0.96	1.86	-9.93	8.08
0.43	-0.03	0.94	2.47	-4.06	8.46
0.51	-0.03	0.93	1.72	13.19	5.94
0.45	-0.03	0.94	1.30	34.15	1.54
0.43	-0.03	0.93	1.43	51.30	-1.51
0.33	-0.05	0.96	1.21	68.01	-1.52
0.29	-0.01	0.96	2.03	76.99	-0.96
0.19	-0.04	0.98	1.63	83.66	-2.45
0.15	-0.02	0.99	1.99	84.97	-2.77
0.05	-0.01	0.98	2.72	84.68	-3.46
-0.05	-0.01	0.98	1.23	80.82	-3.02
-0.07	-0.02	0.98	2.09	71.68	1.11
-0.05	-0.03	0.99	2.00	66.33	1.71
-0.10	-0.01	0.99	3.17	65.99	0.45
-0.15	-0.01	0.99	2.25	61.04	-2.41
-0.22	0.00	0.97	1.54	54.89	0.46
-0.20	-0.00	0.98	1.06	51.07	2.61
-0.25	-0.01	0.97	0.96	49.06	1.26
-0.29	-0.02	0.97	1.02	40.78	-0.23
-0.39	-0.00	0.97	2.47	24.58	-8.36
-0.47	0.02	0.95	2.17	1.83	-8.70
-0.47	0.01	0.95	-0.51	-25.95	-3.96
-0.44	0.02	0.96	-2.25	-50.09	1.97
-0.27	0.00	0.98	-4.68	-73.98	6.65
-0.19	-0.02	0.98	-5.17	-82.06	11.24
0.04	-0.02	0.98	-4.69	-77.63	9.59
0.14	-0.04	0.99	-3.50	-56.36	10.79
0.24	-0.04	0.00	-2.10	-30.33	9.82
0.36	-0.04	0.99	-0.13	5.51	3.85
0.30	-0.04	0.98	1.73	45.50	-3.04
0.14	-0.03	0.99	4.25	85.04	-4.47
-0.05	-0.03	0.99	4.76	102.48	-10.15
-0.23	-0.02	0.96	8.01	103.44	-18.71
-0.42	0.01	0.96	9.39	92.37	-20.03
-0.50	0.00	0.92	7.72	68.34	-15.87
-0.53	0.01	0.90	5.11	47.41	-8.65
-0.60	0.00	0.90	0.26	20.97	-0.44
-0.58	0.01	0.91	-1.10	-14.37	0.06
-0.51	0.02	0.91	-2.24	-44.80	0.39
-0.47	-0.00	0.94	-4.77	-71.64	4.12
-0.32	0.01	0.96	-6.04	-86.11	8.61
-0.17	-0.01	0.99	-6.03	-91.74	13.36
0.01	-0.03	0.98	-6.05	-75.88	16.06
0.16	-0.03	0.99	-5.21	-45.60	22.08
0.23	-0.04	1.01	-2.78	-11.06	16.35
0.29	-0.04	0.99	0.50	25.18	2.19
0.12	-0.03	0.99	2.54	62.64	-6.57
-0.08	-0.02	0.97	3.96	83.68	-5.77
-0.20	0.00	0.93	4.76	90.74	-9.66
-0.39	-0.01	0.92	5.42	90.72	-11.20
-0.44	0.01	0.91	5.39	72.06	-5.74
-0.49	-0.00	0.90	3.95	58.41	-5.02
-0.49	-0.00	0.90	4.31	45.09	-4.63
-0.50	0.01	0.91	5.31	32.02	-7.92
-0.62	0.03	0.88	4.11	4.86	-9.42
-0.58	0.04	0.86	2.48	-20.99	-7.70
-0.56	0.05	0.89	-2.25	-45.61	-2.13
-0.47	0.04	0.92	-6.35	-66.59	8.48
-0.20	0.01	0.94	-7.54	-75.59	9.95
-0.12	0.00	0.96	-7.16	-55.29	15.33
0.02	-0.01	0.98	-4.29	-29.49	12.94
0.06	-0.04	0.98	-2.04	10.08	7.05
-0.04	-0.05	0.98	0.16	40.46	1.42
-0.10	-0.05	0.95	2.53	58.60	-2.92
-0.33	-0.01	0.93	4.79	76.73	-5.25
-0.35	-0.04	0.90	10.60	72.93	-15.55
-0.49	0.00	0.88	10.50	79.06	-15.59
-0.59	0.01	0.88	6.32	66.75	-8.04
-0.56	-0.02	0.85	5.55	51.50	-6.95
-0.64	0.04	0.84	6.34	46.70	-7.53
-0.64	0.05	0.83	4.94	25.33	-6.67
-0.66	0.04	0.83	2.62	3.78	-4.04
-0.65	0.02	0.83	-0.77	-13.40	-0.07
-0.63	0.02	0.83	-1.91	-27.07	0.75
-0.57	-0.01	0.86	-3.09	-41.80	1.13
-0.57	0.00	0.84	-2.32	-60.38	-0.68
-0.50	-0.01	0.88	-4.57	-76.48	1.85
-0.41	-0.03	0.89	-7.88	-83.16	3.20
-0.30	0.01	0.91	-5.79	-83.52	4.54
-0.18	-0.03	0.94	-4.75	-71.99	6.02
-0.11	-0.02	0.97	-1.67	-64.59	0.19
-0.15	-0.01	0.97	-1.38	-48.93	-3.26
-0.19	-0.02	0.97	-1.48	-41.74	-1.22
-0.17	-0.02	0.98	-1.91	-40.71	-1.18
-0.18	-0.01	0.98	-1.60	-42.87	-2.78
-0.17	0.01	0.99	-1.93	-45.27	-0.35
-0.14	-0.01	0.99	-2.17	-51.21	-1.31
-0.10	-0.02	0.99	-3.28	-56.74	-0.63
-0.06	-0.02	0.98	-2.42	-59.54	0.39
-0.05	-0.02	0.00	-2.57	-64.43	0.73
-0.01	-0.02	0.99	-1.90	-69.68	-1.56
0.08	-0.02	0.98	-3.60	-74.24	-0.02
0.15	-0.01	1.01	-3.22	-73.91	1.00
0.17	-0.01	0.97	-2.78	-71.23	1.94
0.29	-0.01	0.96	-1.35	-67.10	2.90
0.32	-0.03	0.96	-2.18	-57.00	0.54
0.40	-0.03	0.95	-1.42	-45.25	-0.81
0.41	-0.03	0.95	-1.26	-27.55	0.47
0.45	-0.03	0.94	-0.20	-9.20	1.16
0.46	-0.03	0.94	0.10	13.09	0.36
0.43	-0.03	0.94	0.39	34.00	-1.86
0.33	-0.04	0.97	-0.16	51.92	-3.33
0.29	-0.02	0.96	1.54	60.96	-0.78
0.19	-0.03	0.98	0.91	68.90	-4.74
0.11	-0.02	0.98	0.29	66.17	-6.92
0.01	-0.04	0.99	2.02	62.55	-7.08
-0.02	-0.03	1.00	1.06	49.23	-4.15
-0.01	0.02	1.00	1.20	33.52	-2.75
-0.10	0.00	1.01	0.15	20.65	0.19
-0.10	-0.01	1.01	-0.29	3.76	0.70
-0.03	-0.02	1.01	-0.52	-11.33	2.07
0.03	-0.02	1.00	-0.74	-17.29	2.09
0.07	-0.01	0.00	-1.13	-17.83	6.49
0.15	-0.02	0.99	-0.63	-16.28	3.89
0.16	-0.02	0.00	-0.57	-5.66	-0.03
0.10	-0.02	1.00	-0.64	0.39	-3.12
0.12	-0.02	1.00	-0.43	2.67	-1.60
0.10	-0.02	0.00	-0.17	8.14	0.67
0.05	-0.02	1.00	0.11	10.06	-0.00
0.04	-0.01	1.00	0.11	8.59	1.19
0.05	-0.02	1.00	-0.21	5.06	0.50
0.04	-0.01	1.00	-0.21	3.22	0.10
0.04	-0.02	1.00	-0.43	1.04	0.48
0.05	-0.01	1.00	-0.39	-0.61	0.51
0.06	-0.01	1.00	-0.54	-2.15	0.53
0.07	-0.02	1.00	-0.38	-1.41	1.63
0.09	-0.02	1.00	-0.27	0.74	2.63
0.15	-0.02	0.00	0.08	8.26	4.48
0.31	-0.02	0.99	0.87	27.78	10.26
0.33	-0.01	0.97	1.39	69.92	21.58
0.35	0.01	0.93	3.23	108.51	20.80
0.32	0.01	0.91	4.31	158.05	18.38
0.23	-0.05	0.89	4.91	191.30	12.50
-0.13	-0.14	0.82	11.62	227.45	-14.79
-0.68	-0.06	0.68	29.95	222.58	-39.47
-0.92	0.01	0.72	33.41	185.39	-37.24
-0.94	0.06	0.65	31.91	124.40	-32.96
-0.95	0.05	0.60	30.99	79.24	-27.89
-0.98	0.08	0.57	16.96	46.89	-14.14
-0.97	0.05	0.60	2.40	13.88	-2.02
-0.86	0.04	0.65	-5.22	-21.23	3.44
-0.82	0.02	0.69	-7.05	-40.65	4.41
-0.80	0.04	0.70	-5.51	-64.78	2.00
-0.73	0.01	0.70	-5.14	-82.79	1.00
-0.69	0.02	0.79	-6.97	-96.90	2.74
-0.56	-0.00	0.80	-3.64	-110.39	0.68
-0.46	0.03	0.84	-3.93	-111.17	-0.23
-0.35	0.01	0.85	-4.09	-111.06	-2.40
-0.28	-0.02	0.87	-3.82	-101.59	-3.02
-0.23	-0.02	0.94	-3.58	-96.79	-2.81
-0.20	0.01	0.96	-1.93	-90.05	-2.49
-0.14	-0.01	0.96	-4.12	-86.10	2.05
-0.07	-0.01	0.98	-4.36	-73.99	4.06
0.01	-0.00	0.99	-2.37	-61.76	3.15
0.01	-0.01	0.99	-2.32	-49.52	0.25
0.02	-0.02	0.99	-2.35	-38.26	-0.36
-0.00	-0.02	0.00	-1.52	-28.03	-1.04
-0.02	-0.02	0.00	-1.43	-23.98	-0.84
-0.02	-0.01	0.00	-1.35	-22.96	0.14
-0.01	-0.01	1.00	-1.24	-23.37	-0.10
0.02	-0.01	1.00	-0.78	-22.35	-1.15
0.01	-0.02	1.00	-1.01	-21.75	-0.64
0.02	-0.01	1.00	-1.09	-23.08	-0.27
0.05	-0.01	0.00	-0.92	-23.96	1.84
0.11	-0.02	1.00	-1.09	-22.98	0.58
0.10	-0.01	0.00	-1.01	-16.19	0.42
0.12	-0.02	0.00	-0.79	-12.10	0.61
0.13	-0.02	0.00	-0.79	-7.48	-0.13
0.11	-0.02	0.00	-0.63	-3.25	-0.40
0.09	-0.02	0.00	-0.42	-1.51	-0.19
0.08	-0.01	1.00	-0.54	-1.80	0.13
0.08	-0.02	1.00	-0.53	-2.60	0.45
0.08	-0.02	1.00	-0.56	-3.36	0.31
0.07	-0.02	0.00	-0.56	-5.44	0.29
0.08	-0.01	1.00	-0.68	-7.94	1.06
0.09	-0.01	0.00	-0.65	-9.20	1.19
0.11	-0.02	0.00	-0.73	-9.50	0.99
0.13	-0.02	0.00	-0.82	-8.86	-0.65
0.11	-0.02	0.00	-0.57	-6.74	0.31
0.12	-0.02	0.00	-0.55	-6.65	0.14
0.13	-0.02	0.00	-0.59	-6.24	0.16
0.16	-0.02	0.00	-0.38	-4.17	1.32
0.22	-0.02	0.99	-0.03	2.80	1.99
